subj_idx,gender,year,education,dist,trial_type,rt,response,key_press,condition,correct_response,correct,word,Image,shape_en,valence,ACC,exp,matchness
1,0,2000,5,434.97,psychophysics,874,f,f,image_first,f,TRUE,三角,img/C_ambi40.png,circle,triangle,1,exp1,mismatch
1,0,2000,5,434.97,psychophysics,670,j,j,image_first,j,TRUE,圆形,img/C_ambi40.png,circle,circle,1,exp1,match
1,0,2000,5,434.97,psychophysics,594,j,j,image_first,j,TRUE,三角,img/T_ambi40.png,triangle,triangle,1,exp1,match
1,0,2000,5,434.97,psychophysics,645,f,f,image_first,f,TRUE,圆形,img/S_ambi40.png,square,circle,1,exp1,mismatch
1,0,2000,5,434.97,psychophysics,573,j,j,image_first,j,TRUE,方形,img/S_ambi40.png,square,square,1,exp1,match
1,0,2000,5,434.97,psychophysics,548,j,j,image_first,j,TRUE,三角,img/T_ambi40.png,triangle,triangle,1,exp1,match
1,0,2000,5,434.97,psychophysics,612,f,f,image_first,f,TRUE,方形,img/C_ambi40.png,circle,square,1,exp1,mismatch
1,0,2000,5,434.97,psychophysics,574,j,j,image_first,j,TRUE,方形,img/S_ambi40.png,square,square,1,exp1,match
1,0,2000,5,434.97,psychophysics,611,f,f,image_first,f,TRUE,方形,img/T_ambi40.png,triangle,square,1,exp1,mismatch
1,0,2000,5,434.97,psychophysics,678,f,f,image_first,f,TRUE,圆形,img/T_ambi40.png,triangle,circle,1,exp1,mismatch
1,0,2000,5,434.97,psychophysics,578,j,j,image_first,j,TRUE,圆形,img/C_ambi40.png,circle,circle,1,exp1,match
1,0,2000,5,434.97,psychophysics,573,f,f,image_first,f,TRUE,三角,img/S_ambi40.png,square,triangle,1,exp1,mismatch
1,0,2000,5,434.97,psychophysics,570,j,j,image_first,j,TRUE,三角,img/T_ambi40.png,triangle,triangle,1,exp1,match
1,0,2000,5,434.97,psychophysics,557,j,j,image_first,j,TRUE,三角,img/T_ambi40.png,triangle,triangle,1,exp1,match
1,0,2000,5,434.97,psychophysics,556,f,f,image_first,f,TRUE,三角,img/S_ambi40.png,square,triangle,1,exp1,mismatch
1,0,2000,5,434.97,psychophysics,558,j,j,image_first,j,TRUE,圆形,img/C_ambi40.png,circle,circle,1,exp1,match
1,0,2000,5,434.97,psychophysics,676,f,f,image_first,f,TRUE,方形,img/T_ambi40.png,triangle,square,1,exp1,mismatch
1,0,2000,5,434.97,psychophysics,756,f,f,image_first,f,TRUE,圆形,img/S_ambi40.png,square,circle,1,exp1,mismatch
1,0,2000,5,434.97,psychophysics,620,f,f,image_first,f,TRUE,圆形,img/T_ambi40.png,triangle,circle,1,exp1,mismatch
1,0,2000,5,434.97,psychophysics,672,f,f,image_first,f,TRUE,方形,img/C_ambi40.png,circle,square,1,exp1,mismatch
1,0,2000,5,434.97,psychophysics,640,j,j,image_first,j,TRUE,方形,img/S_ambi40.png,square,square,1,exp1,match
1,0,2000,5,434.97,psychophysics,622,f,f,image_first,f,TRUE,三角,img/C_ambi40.png,circle,triangle,1,exp1,mismatch
1,0,2000,5,434.97,psychophysics,740,j,j,image_first,j,TRUE,方形,img/S_ambi40.png,square,square,1,exp1,match
1,0,2000,5,434.97,psychophysics,705,j,j,image_first,j,TRUE,圆形,img/C_ambi40.png,circle,circle,1,exp1,match
1,0,2000,5,434.97,psychophysics,555,j,j,image_first,j,TRUE,三角,img/T_ambi40.png,triangle,triangle,1,exp1,match
1,0,2000,5,434.97,psychophysics,609,f,f,image_first,f,TRUE,方形,img/C_ambi40.png,circle,square,1,exp1,mismatch
1,0,2000,5,434.97,psychophysics,610,f,f,image_first,f,TRUE,三角,img/S_ambi40.png,square,triangle,1,exp1,mismatch
1,0,2000,5,434.97,psychophysics,505,j,j,image_first,j,TRUE,圆形,img/C_ambi40.png,circle,circle,1,exp1,match
1,0,2000,5,434.97,psychophysics,829,f,f,image_first,f,TRUE,圆形,img/S_ambi40.png,square,circle,1,exp1,mismatch
1,0,2000,5,434.97,psychophysics,614,j,j,image_first,j,TRUE,方形,img/S_ambi40.png,square,square,1,exp1,match
1,0,2000,5,434.97,psychophysics,623,f,f,image_first,f,TRUE,三角,img/C_ambi40.png,circle,triangle,1,exp1,mismatch
1,0,2000,5,434.97,psychophysics,580,j,j,image_first,j,TRUE,三角,img/T_ambi40.png,triangle,triangle,1,exp1,match
1,0,2000,5,434.97,psychophysics,679,j,j,image_first,j,TRUE,方形,img/S_ambi40.png,square,square,1,exp1,match
1,0,2000,5,434.97,psychophysics,627,j,j,image_first,j,TRUE,圆形,img/C_ambi40.png,circle,circle,1,exp1,match
1,0,2000,5,434.97,psychophysics,627,f,f,image_first,f,TRUE,方形,img/T_ambi40.png,triangle,square,1,exp1,mismatch
1,0,2000,5,434.97,psychophysics,672,f,f,image_first,f,TRUE,圆形,img/T_ambi40.png,triangle,circle,1,exp1,mismatch
1,0,2000,5,434.97,psychophysics,629,j,j,image_first,j,TRUE,三角,img/T_ambi40.png,triangle,triangle,1,exp1,match
1,0,2000,5,434.97,psychophysics,662,j,j,image_first,j,TRUE,圆形,img/C_ambi40.png,circle,circle,1,exp1,match
1,0,2000,5,434.97,psychophysics,607,f,f,image_first,f,TRUE,方形,img/C_ambi40.png,circle,square,1,exp1,mismatch
1,0,2000,5,434.97,psychophysics,643,f,f,image_first,f,TRUE,圆形,img/T_ambi40.png,triangle,circle,1,exp1,mismatch
1,0,2000,5,434.97,psychophysics,590,j,j,image_first,j,TRUE,方形,img/S_ambi40.png,square,square,1,exp1,match
1,0,2000,5,434.97,psychophysics,608,j,j,image_first,j,TRUE,方形,img/S_ambi40.png,square,square,1,exp1,match
1,0,2000,5,434.97,psychophysics,591,f,f,image_first,f,TRUE,三角,img/C_ambi40.png,circle,triangle,1,exp1,mismatch
1,0,2000,5,434.97,psychophysics,695,f,f,image_first,f,TRUE,三角,img/S_ambi40.png,square,triangle,1,exp1,mismatch
1,0,2000,5,434.97,psychophysics,557,j,j,image_first,j,TRUE,三角,img/T_ambi40.png,triangle,triangle,1,exp1,match
1,0,2000,5,434.97,psychophysics,597,f,f,image_first,f,TRUE,方形,img/T_ambi40.png,triangle,square,1,exp1,mismatch
1,0,2000,5,434.97,psychophysics,777,f,f,image_first,f,TRUE,圆形,img/S_ambi40.png,square,circle,1,exp1,mismatch
1,0,2000,5,434.97,psychophysics,586,j,j,image_first,j,TRUE,圆形,img/C_ambi40.png,circle,circle,1,exp1,match
1,0,2000,5,434.97,psychophysics,744,j,j,image_first,j,TRUE,方形,img/S_ambi40.png,square,square,1,exp1,match
1,0,2000,5,434.97,psychophysics,579,j,j,image_first,j,TRUE,三角,img/T_ambi40.png,triangle,triangle,1,exp1,match
1,0,2000,5,434.97,psychophysics,636,f,f,image_first,f,TRUE,圆形,img/T_ambi40.png,triangle,circle,1,exp1,mismatch
1,0,2000,5,434.97,psychophysics,696,f,f,image_first,f,TRUE,三角,img/C_ambi40.png,circle,triangle,1,exp1,mismatch
1,0,2000,5,434.97,psychophysics,612,j,j,image_first,j,TRUE,方形,img/S_ambi40.png,square,square,1,exp1,match
1,0,2000,5,434.97,psychophysics,663,f,f,image_first,f,TRUE,方形,img/T_ambi40.png,triangle,square,1,exp1,mismatch
1,0,2000,5,434.97,psychophysics,538,j,j,image_first,j,TRUE,圆形,img/C_ambi40.png,circle,circle,1,exp1,match
1,0,2000,5,434.97,psychophysics,603,j,j,image_first,j,TRUE,圆形,img/C_ambi40.png,circle,circle,1,exp1,match
1,0,2000,5,434.97,psychophysics,616,f,f,image_first,f,TRUE,三角,img/S_ambi40.png,square,triangle,1,exp1,mismatch
1,0,2000,5,434.97,psychophysics,559,j,j,image_first,j,TRUE,三角,img/T_ambi40.png,triangle,triangle,1,exp1,match
1,0,2000,5,434.97,psychophysics,616,f,f,image_first,f,TRUE,方形,img/C_ambi40.png,circle,square,1,exp1,mismatch
1,0,2000,5,434.97,psychophysics,663,f,f,image_first,f,TRUE,圆形,img/S_ambi40.png,square,circle,1,exp1,mismatch
1,0,2000,5,434.97,psychophysics,1140,f,f,image_first,j,FALSE,三角,img/T_ambi40.png,triangle,triangle,0,exp1,match
1,0,2000,5,434.97,psychophysics,742,f,f,image_first,f,TRUE,圆形,img/S_ambi40.png,square,circle,1,exp1,mismatch
1,0,2000,5,434.97,psychophysics,553,j,j,image_first,j,TRUE,圆形,img/C_ambi40.png,circle,circle,1,exp1,match
1,0,2000,5,434.97,psychophysics,599,j,j,image_first,j,TRUE,三角,img/T_ambi40.png,triangle,triangle,1,exp1,match
1,0,2000,5,434.97,psychophysics,588,j,j,image_first,j,TRUE,方形,img/S_ambi40.png,square,square,1,exp1,match
1,0,2000,5,434.97,psychophysics,669,j,j,image_first,j,TRUE,方形,img/S_ambi40.png,square,square,1,exp1,match
1,0,2000,5,434.97,psychophysics,609,f,f,image_first,f,TRUE,方形,img/T_ambi40.png,triangle,square,1,exp1,mismatch
1,0,2000,5,434.97,psychophysics,671,f,f,image_first,f,TRUE,三角,img/S_ambi40.png,square,triangle,1,exp1,mismatch
1,0,2000,5,434.97,psychophysics,598,f,f,image_first,f,TRUE,圆形,img/T_ambi40.png,triangle,circle,1,exp1,mismatch
1,0,2000,5,434.97,psychophysics,615,f,f,image_first,f,TRUE,方形,img/C_ambi40.png,circle,square,1,exp1,mismatch
1,0,2000,5,434.97,psychophysics,561,j,j,image_first,j,TRUE,圆形,img/C_ambi40.png,circle,circle,1,exp1,match
1,0,2000,5,434.97,psychophysics,578,f,f,image_first,f,TRUE,三角,img/C_ambi40.png,circle,triangle,1,exp1,mismatch
1,0,2000,5,434.97,psychophysics,630,f,f,image_first,f,TRUE,方形,img/C_ambi40.png,circle,square,1,exp1,mismatch
1,0,2000,5,434.97,psychophysics,546,j,j,image_first,j,TRUE,三角,img/T_ambi40.png,triangle,triangle,1,exp1,match
1,0,2000,5,434.97,psychophysics,714,f,f,image_first,f,TRUE,圆形,img/S_ambi40.png,square,circle,1,exp1,mismatch
1,0,2000,5,434.97,psychophysics,740,f,f,image_first,f,TRUE,三角,img/C_ambi40.png,circle,triangle,1,exp1,mismatch
1,0,2000,5,434.97,psychophysics,648,f,f,image_first,f,TRUE,圆形,img/T_ambi40.png,triangle,circle,1,exp1,mismatch
1,0,2000,5,434.97,psychophysics,679,j,j,image_first,j,TRUE,方形,img/S_ambi40.png,square,square,1,exp1,match
1,0,2000,5,434.97,psychophysics,592,j,j,image_first,j,TRUE,圆形,img/C_ambi40.png,circle,circle,1,exp1,match
1,0,2000,5,434.97,psychophysics,591,f,f,image_first,f,TRUE,方形,img/T_ambi40.png,triangle,square,1,exp1,mismatch
1,0,2000,5,434.97,psychophysics,615,f,f,image_first,f,TRUE,三角,img/S_ambi40.png,square,triangle,1,exp1,mismatch
1,0,2000,5,434.97,psychophysics,576,j,j,image_first,j,TRUE,方形,img/S_ambi40.png,square,square,1,exp1,match
1,0,2000,5,434.97,psychophysics,564,j,j,image_first,j,TRUE,三角,img/T_ambi40.png,triangle,triangle,1,exp1,match
1,0,2000,5,434.97,psychophysics,538,j,j,image_first,j,TRUE,圆形,img/C_ambi40.png,circle,circle,1,exp1,match
1,0,2000,5,434.97,psychophysics,493,j,j,image_first,j,TRUE,三角,img/T_ambi40.png,triangle,triangle,1,exp1,match
1,0,2000,5,434.97,psychophysics,520,j,j,image_first,j,TRUE,圆形,img/C_ambi40.png,circle,circle,1,exp1,match
1,0,2000,5,434.97,psychophysics,643,f,f,image_first,f,TRUE,圆形,img/T_ambi40.png,triangle,circle,1,exp1,mismatch
1,0,2000,5,434.97,psychophysics,568,j,j,image_first,j,TRUE,三角,img/T_ambi40.png,triangle,triangle,1,exp1,match
1,0,2000,5,434.97,psychophysics,736,f,f,image_first,f,TRUE,方形,img/C_ambi40.png,circle,square,1,exp1,mismatch
1,0,2000,5,434.97,psychophysics,497,j,j,image_first,j,TRUE,方形,img/S_ambi40.png,square,square,1,exp1,match
1,0,2000,5,434.97,psychophysics,615,f,f,image_first,f,TRUE,方形,img/T_ambi40.png,triangle,square,1,exp1,mismatch
1,0,2000,5,434.97,psychophysics,636,f,f,image_first,f,TRUE,圆形,img/S_ambi40.png,square,circle,1,exp1,mismatch
1,0,2000,5,434.97,psychophysics,548,j,j,image_first,j,TRUE,圆形,img/C_ambi40.png,circle,circle,1,exp1,match
1,0,2000,5,434.97,psychophysics,588,j,j,image_first,j,TRUE,方形,img/S_ambi40.png,square,square,1,exp1,match
1,0,2000,5,434.97,psychophysics,567,f,f,image_first,f,TRUE,三角,img/S_ambi40.png,square,triangle,1,exp1,mismatch
1,0,2000,5,434.97,psychophysics,664,f,f,image_first,f,TRUE,三角,img/C_ambi40.png,circle,triangle,1,exp1,mismatch
1,0,2000,5,434.97,psychophysics,588,j,j,image_first,j,TRUE,方形,img/S_ambi40.png,square,square,1,exp1,match
1,0,2000,5,434.97,psychophysics,579,j,j,image_first,j,TRUE,三角,img/T_ambi40.png,triangle,triangle,1,exp1,match
1,0,2000,5,434.97,psychophysics,626,f,f,image_first,f,TRUE,方形,img/T_ambi40.png,triangle,square,1,exp1,mismatch
1,0,2000,5,434.97,psychophysics,638,f,f,image_first,f,TRUE,三角,img/C_ambi40.png,circle,triangle,1,exp1,mismatch
1,0,2000,5,434.97,psychophysics,748,f,f,image_first,f,TRUE,圆形,img/S_ambi40.png,square,circle,1,exp1,mismatch
1,0,2000,5,434.97,psychophysics,555,j,j,image_first,j,TRUE,圆形,img/C_ambi40.png,circle,circle,1,exp1,match
1,0,2000,5,434.97,psychophysics,550,f,f,image_first,f,TRUE,圆形,img/T_ambi40.png,triangle,circle,1,exp1,mismatch
1,0,2000,5,434.97,psychophysics,682,f,f,image_first,f,TRUE,方形,img/C_ambi40.png,circle,square,1,exp1,mismatch
1,0,2000,5,434.97,psychophysics,571,j,j,image_first,j,TRUE,方形,img/S_ambi40.png,square,square,1,exp1,match
1,0,2000,5,434.97,psychophysics,584,j,j,image_first,j,TRUE,圆形,img/C_ambi40.png,circle,circle,1,exp1,match
1,0,2000,5,434.97,psychophysics,528,j,j,image_first,j,TRUE,三角,img/T_ambi40.png,triangle,triangle,1,exp1,match
1,0,2000,5,434.97,psychophysics,580,f,f,image_first,f,TRUE,三角,img/S_ambi40.png,square,triangle,1,exp1,mismatch
1,0,2000,5,434.97,psychophysics,634,f,f,image_first,f,TRUE,圆形,img/T_ambi40.png,triangle,circle,1,exp1,mismatch
1,0,2000,5,434.97,psychophysics,528,j,j,image_first,j,TRUE,方形,img/S_ambi40.png,square,square,1,exp1,match
1,0,2000,5,434.97,psychophysics,551,j,j,image_first,j,TRUE,三角,img/T_ambi40.png,triangle,triangle,1,exp1,match
1,0,2000,5,434.97,psychophysics,533,j,j,image_first,j,TRUE,圆形,img/C_ambi40.png,circle,circle,1,exp1,match
1,0,2000,5,434.97,psychophysics,545,f,f,image_first,f,TRUE,三角,img/S_ambi40.png,square,triangle,1,exp1,mismatch
1,0,2000,5,434.97,psychophysics,640,f,f,image_first,f,TRUE,三角,img/C_ambi40.png,circle,triangle,1,exp1,mismatch
1,0,2000,5,434.97,psychophysics,546,j,j,image_first,j,TRUE,圆形,img/C_ambi40.png,circle,circle,1,exp1,match
1,0,2000,5,434.97,psychophysics,552,j,j,image_first,j,TRUE,方形,img/S_ambi40.png,square,square,1,exp1,match
1,0,2000,5,434.97,psychophysics,597,f,f,image_first,f,TRUE,圆形,img/S_ambi40.png,square,circle,1,exp1,mismatch
1,0,2000,5,434.97,psychophysics,565,j,j,image_first,j,TRUE,三角,img/T_ambi40.png,triangle,triangle,1,exp1,match
1,0,2000,5,434.97,psychophysics,600,f,f,image_first,f,TRUE,方形,img/T_ambi40.png,triangle,square,1,exp1,mismatch
1,0,2000,5,434.97,psychophysics,619,f,f,image_first,f,TRUE,方形,img/C_ambi40.png,circle,square,1,exp1,mismatch
1,0,2000,5,434.97,psychophysics,599,j,j,image_first,j,TRUE,方形,img/S_ambi40.png,square,square,1,exp1,match
1,0,2000,5,434.97,psychophysics,638,f,f,image_first,f,TRUE,方形,img/C_ambi40.png,circle,square,1,exp1,mismatch
1,0,2000,5,434.97,psychophysics,562,j,j,image_first,j,TRUE,三角,img/T_ambi40.png,triangle,triangle,1,exp1,match
1,0,2000,5,434.97,psychophysics,596,j,j,image_first,j,TRUE,圆形,img/C_ambi40.png,circle,circle,1,exp1,match
1,0,2000,5,434.97,psychophysics,570,f,f,image_first,f,TRUE,三角,img/C_ambi40.png,circle,triangle,1,exp1,mismatch
1,0,2000,5,434.97,psychophysics,624,f,f,image_first,f,TRUE,方形,img/T_ambi40.png,triangle,square,1,exp1,mismatch
1,0,2000,5,434.97,psychophysics,558,j,j,image_first,j,TRUE,方形,img/S_ambi40.png,square,square,1,exp1,match
1,0,2000,5,434.97,psychophysics,568,f,f,image_first,f,TRUE,三角,img/S_ambi40.png,square,triangle,1,exp1,mismatch
1,0,2000,5,434.97,psychophysics,626,f,f,image_first,f,TRUE,圆形,img/T_ambi40.png,triangle,circle,1,exp1,mismatch
1,0,2000,5,434.97,psychophysics,542,j,j,image_first,j,TRUE,圆形,img/C_ambi40.png,circle,circle,1,exp1,match
1,0,2000,5,434.97,psychophysics,668,f,f,image_first,f,TRUE,圆形,img/S_ambi40.png,square,circle,1,exp1,mismatch
1,0,2000,5,434.97,psychophysics,516,j,j,image_first,j,TRUE,三角,img/T_ambi40.png,triangle,triangle,1,exp1,match
1,0,2000,5,434.97,psychophysics,558,f,f,image_first,f,TRUE,方形,img/C_ambi40.png,circle,square,1,exp1,mismatch
1,0,2000,5,434.97,psychophysics,622,f,f,image_first,f,TRUE,圆形,img/T_ambi40.png,triangle,circle,1,exp1,mismatch
1,0,2000,5,434.97,psychophysics,631,f,f,image_first,f,TRUE,圆形,img/S_ambi40.png,square,circle,1,exp1,mismatch
1,0,2000,5,434.97,psychophysics,643,j,j,image_first,j,TRUE,方形,img/S_ambi40.png,square,square,1,exp1,match
1,0,2000,5,434.97,psychophysics,567,j,j,image_first,j,TRUE,圆形,img/C_ambi40.png,circle,circle,1,exp1,match
1,0,2000,5,434.97,psychophysics,578,j,j,image_first,j,TRUE,方形,img/S_ambi40.png,square,square,1,exp1,match
1,0,2000,5,434.97,psychophysics,544,f,f,image_first,f,TRUE,三角,img/C_ambi40.png,circle,triangle,1,exp1,mismatch
1,0,2000,5,434.97,psychophysics,616,f,f,image_first,f,TRUE,方形,img/T_ambi40.png,triangle,square,1,exp1,mismatch
1,0,2000,5,434.97,psychophysics,507,j,j,image_first,j,TRUE,圆形,img/C_ambi40.png,circle,circle,1,exp1,match
1,0,2000,5,434.97,psychophysics,537,f,f,image_first,f,TRUE,三角,img/S_ambi40.png,square,triangle,1,exp1,mismatch
1,0,2000,5,434.97,psychophysics,533,j,j,image_first,j,TRUE,三角,img/T_ambi40.png,triangle,triangle,1,exp1,match
1,0,2000,5,434.97,psychophysics,530,j,j,image_first,j,TRUE,三角,img/T_ambi40.png,triangle,triangle,1,exp1,match
1,0,2000,5,434.97,psychophysics,525,f,f,image_first,f,TRUE,圆形,img/S_ambi40.png,square,circle,1,exp1,mismatch
1,0,2000,5,434.97,psychophysics,603,f,f,image_first,f,TRUE,圆形,img/T_ambi40.png,triangle,circle,1,exp1,mismatch
1,0,2000,5,434.97,psychophysics,545,j,j,image_first,j,TRUE,圆形,img/C_ambi40.png,circle,circle,1,exp1,match
1,0,2000,5,434.97,psychophysics,602,f,f,image_first,f,TRUE,三角,img/C_ambi40.png,circle,triangle,1,exp1,mismatch
1,0,2000,5,434.97,psychophysics,635,f,f,image_first,f,TRUE,三角,img/S_ambi40.png,square,triangle,1,exp1,mismatch
1,0,2000,5,434.97,psychophysics,566,j,j,image_first,j,TRUE,方形,img/S_ambi40.png,square,square,1,exp1,match
1,0,2000,5,434.97,psychophysics,589,j,j,image_first,j,TRUE,方形,img/S_ambi40.png,square,square,1,exp1,match
1,0,2000,5,434.97,psychophysics,610,f,f,image_first,f,TRUE,方形,img/T_ambi40.png,triangle,square,1,exp1,mismatch
1,0,2000,5,434.97,psychophysics,527,j,j,image_first,j,TRUE,三角,img/T_ambi40.png,triangle,triangle,1,exp1,match
1,0,2000,5,434.97,psychophysics,577,j,j,image_first,j,TRUE,圆形,img/C_ambi40.png,circle,circle,1,exp1,match
1,0,2000,5,434.97,psychophysics,760,j,j,image_first,j,TRUE,三角,img/T_ambi40.png,triangle,triangle,1,exp1,match
1,0,2000,5,434.97,psychophysics,669,f,f,image_first,f,TRUE,方形,img/C_ambi40.png,circle,square,1,exp1,mismatch
1,0,2000,5,434.97,psychophysics,475,j,j,image_first,j,TRUE,方形,img/S_ambi40.png,square,square,1,exp1,match
1,0,2000,5,434.97,psychophysics,676,f,f,image_first,f,TRUE,方形,img/C_ambi40.png,circle,square,1,exp1,mismatch
1,0,2000,5,434.97,psychophysics,541,j,j,image_first,j,TRUE,三角,img/T_ambi40.png,triangle,triangle,1,exp1,match
1,0,2000,5,434.97,psychophysics,527,j,j,image_first,j,TRUE,圆形,img/C_ambi40.png,circle,circle,1,exp1,match
1,0,2000,5,434.97,psychophysics,588,f,f,image_first,f,TRUE,三角,img/C_ambi40.png,circle,triangle,1,exp1,mismatch
1,0,2000,5,434.97,psychophysics,632,f,f,image_first,f,TRUE,三角,img/S_ambi40.png,square,triangle,1,exp1,mismatch
1,0,2000,5,434.97,psychophysics,683,f,f,image_first,f,TRUE,方形,img/T_ambi40.png,triangle,square,1,exp1,mismatch
1,0,2000,5,434.97,psychophysics,568,j,j,image_first,j,TRUE,方形,img/S_ambi40.png,square,square,1,exp1,match
1,0,2000,5,434.97,psychophysics,641,f,f,image_first,f,TRUE,圆形,img/S_ambi40.png,square,circle,1,exp1,mismatch
1,0,2000,5,434.97,psychophysics,679,f,f,image_first,f,TRUE,圆形,img/T_ambi40.png,triangle,circle,1,exp1,mismatch
1,0,2000,5,434.97,psychophysics,540,j,j,image_first,j,TRUE,圆形,img/C_ambi40.png,circle,circle,1,exp1,match
1,0,2000,5,434.97,psychophysics,531,j,j,image_first,j,TRUE,三角,img/T_ambi40.png,triangle,triangle,1,exp1,match
1,0,2000,5,434.97,psychophysics,596,f,f,image_first,f,TRUE,三角,img/C_ambi40.png,circle,triangle,1,exp1,mismatch
1,0,2000,5,434.97,psychophysics,711,f,f,image_first,f,TRUE,圆形,img/S_ambi40.png,square,circle,1,exp1,mismatch
1,0,2000,5,434.97,psychophysics,616,f,f,image_first,f,TRUE,方形,img/T_ambi40.png,triangle,square,1,exp1,mismatch
1,0,2000,5,434.97,psychophysics,648,f,f,image_first,f,TRUE,方形,img/C_ambi40.png,circle,square,1,exp1,mismatch
1,0,2000,5,434.97,psychophysics,572,j,j,image_first,j,TRUE,三角,img/T_ambi40.png,triangle,triangle,1,exp1,match
1,0,2000,5,434.97,psychophysics,625,j,j,image_first,j,TRUE,圆形,img/C_ambi40.png,circle,circle,1,exp1,match
1,0,2000,5,434.97,psychophysics,641,j,j,image_first,j,TRUE,方形,img/S_ambi40.png,square,square,1,exp1,match
1,0,2000,5,434.97,psychophysics,586,j,j,image_first,j,TRUE,三角,img/T_ambi40.png,triangle,triangle,1,exp1,match
1,0,2000,5,434.97,psychophysics,584,f,f,image_first,f,TRUE,圆形,img/T_ambi40.png,triangle,circle,1,exp1,mismatch
1,0,2000,5,434.97,psychophysics,564,j,j,image_first,j,TRUE,方形,img/S_ambi40.png,square,square,1,exp1,match
1,0,2000,5,434.97,psychophysics,547,f,f,image_first,f,TRUE,三角,img/S_ambi40.png,square,triangle,1,exp1,mismatch
1,0,2000,5,434.97,psychophysics,591,j,j,image_first,j,TRUE,圆形,img/C_ambi40.png,circle,circle,1,exp1,match
1,0,2000,5,434.97,psychophysics,694,f,f,image_first,f,TRUE,方形,img/C_ambi40.png,circle,square,1,exp1,mismatch
1,0,2000,5,434.97,psychophysics,536,j,j,image_first,j,TRUE,圆形,img/C_ambi40.png,circle,circle,1,exp1,match
1,0,2000,5,434.97,psychophysics,595,j,j,image_first,j,TRUE,方形,img/S_ambi40.png,square,square,1,exp1,match
1,0,2000,5,434.97,psychophysics,591,f,f,image_first,f,TRUE,三角,img/C_ambi40.png,circle,triangle,1,exp1,mismatch
1,0,2000,5,434.97,psychophysics,522,j,j,image_first,j,TRUE,方形,img/S_ambi40.png,square,square,1,exp1,match
1,0,2000,5,434.97,psychophysics,591,f,f,image_first,f,TRUE,方形,img/T_ambi40.png,triangle,square,1,exp1,mismatch
1,0,2000,5,434.97,psychophysics,508,j,j,image_first,j,TRUE,三角,img/T_ambi40.png,triangle,triangle,1,exp1,match
1,0,2000,5,434.97,psychophysics,494,j,j,image_first,j,TRUE,圆形,img/C_ambi40.png,circle,circle,1,exp1,match
1,0,2000,5,434.97,psychophysics,607,f,f,image_first,f,TRUE,圆形,img/S_ambi40.png,square,circle,1,exp1,mismatch
1,0,2000,5,434.97,psychophysics,468,j,j,image_first,j,TRUE,三角,img/T_ambi40.png,triangle,triangle,1,exp1,match
1,0,2000,5,434.97,psychophysics,553,f,f,image_first,f,TRUE,三角,img/S_ambi40.png,square,triangle,1,exp1,mismatch
1,0,2000,5,434.97,psychophysics,622,f,f,image_first,f,TRUE,圆形,img/T_ambi40.png,triangle,circle,1,exp1,mismatch
1,0,2000,5,434.97,psychophysics,628,f,f,image_first,f,TRUE,方形,img/C_ambi40.png,circle,square,1,exp1,mismatch
1,0,2000,5,434.97,psychophysics,650,f,f,image_first,f,TRUE,圆形,img/T_ambi40.png,triangle,circle,1,exp1,mismatch
1,0,2000,5,434.97,psychophysics,522,j,j,image_first,j,TRUE,三角,img/T_ambi40.png,triangle,triangle,1,exp1,match
1,0,2000,5,434.97,psychophysics,548,j,j,image_first,j,TRUE,圆形,img/C_ambi40.png,circle,circle,1,exp1,match
1,0,2000,5,434.97,psychophysics,586,f,f,image_first,f,TRUE,三角,img/S_ambi40.png,square,triangle,1,exp1,mismatch
1,0,2000,5,434.97,psychophysics,665,j,j,image_first,j,TRUE,方形,img/S_ambi40.png,square,square,1,exp1,match
1,0,2000,5,434.97,psychophysics,552,j,j,image_first,j,TRUE,圆形,img/C_ambi40.png,circle,circle,1,exp1,match
1,0,2000,5,434.97,psychophysics,568,f,f,image_first,f,TRUE,方形,img/T_ambi40.png,triangle,square,1,exp1,mismatch
1,0,2000,5,434.97,psychophysics,610,j,j,image_first,j,TRUE,方形,img/S_ambi40.png,square,square,1,exp1,match
1,0,2000,5,434.97,psychophysics,579,f,f,image_first,f,TRUE,三角,img/C_ambi40.png,circle,triangle,1,exp1,mismatch
1,0,2000,5,434.97,psychophysics,677,f,f,image_first,f,TRUE,圆形,img/S_ambi40.png,square,circle,1,exp1,mismatch
1,0,2000,5,434.97,psychophysics,501,j,j,image_first,j,TRUE,三角,img/T_ambi40.png,triangle,triangle,1,exp1,match
1,0,2000,5,434.97,psychophysics,504,j,j,image_first,j,TRUE,三角,img/T_ambi40.png,triangle,triangle,1,exp1,match
1,0,2000,5,434.97,psychophysics,609,f,f,image_first,f,TRUE,方形,img/C_ambi40.png,circle,square,1,exp1,mismatch
1,0,2000,5,434.97,psychophysics,576,j,j,image_first,j,TRUE,圆形,img/C_ambi40.png,circle,circle,1,exp1,match
1,0,2000,5,434.97,psychophysics,492,j,j,image_first,f,FALSE,圆形,img/S_ambi40.png,square,circle,0,exp1,mismatch
1,0,2000,5,434.97,psychophysics,506,j,j,image_first,j,TRUE,方形,img/S_ambi40.png,square,square,1,exp1,match
1,0,2000,5,434.97,psychophysics,591,j,j,image_first,j,TRUE,方形,img/S_ambi40.png,square,square,1,exp1,match
1,0,2000,5,434.97,psychophysics,672,j,j,image_first,j,TRUE,圆形,img/C_ambi40.png,circle,circle,1,exp1,match
1,0,2000,5,434.97,psychophysics,583,f,f,image_first,f,TRUE,圆形,img/T_ambi40.png,triangle,circle,1,exp1,mismatch
1,0,2000,5,434.97,psychophysics,646,f,f,image_first,f,TRUE,三角,img/S_ambi40.png,square,triangle,1,exp1,mismatch
1,0,2000,5,434.97,psychophysics,640,f,f,image_first,f,TRUE,方形,img/T_ambi40.png,triangle,square,1,exp1,mismatch
1,0,2000,5,434.97,psychophysics,588,j,j,image_first,j,TRUE,三角,img/T_ambi40.png,triangle,triangle,1,exp1,match
1,0,2000,5,434.97,psychophysics,718,f,f,image_first,f,TRUE,三角,img/C_ambi40.png,circle,triangle,1,exp1,mismatch
1,0,2000,5,434.97,psychophysics,561,j,j,image_first,j,TRUE,三角,img/T_ambi40.png,triangle,triangle,1,exp1,match
1,0,2000,5,434.97,psychophysics,638,f,f,image_first,f,TRUE,方形,img/T_ambi40.png,triangle,square,1,exp1,mismatch
1,0,2000,5,434.97,psychophysics,599,j,j,image_first,j,TRUE,三角,img/T_ambi40.png,triangle,triangle,1,exp1,match
1,0,2000,5,434.97,psychophysics,557,j,j,image_first,j,TRUE,圆形,img/C_ambi40.png,circle,circle,1,exp1,match
1,0,2000,5,434.97,psychophysics,646,f,f,image_first,f,TRUE,三角,img/C_ambi40.png,circle,triangle,1,exp1,mismatch
1,0,2000,5,434.97,psychophysics,536,j,j,image_first,j,TRUE,方形,img/S_ambi40.png,square,square,1,exp1,match
1,0,2000,5,434.97,psychophysics,601,f,f,image_first,f,TRUE,圆形,img/T_ambi40.png,triangle,circle,1,exp1,mismatch
1,0,2000,5,434.97,psychophysics,740,f,f,image_first,f,TRUE,圆形,img/S_ambi40.png,square,circle,1,exp1,mismatch
1,0,2000,5,434.97,psychophysics,567,j,j,image_first,j,TRUE,圆形,img/C_ambi40.png,circle,circle,1,exp1,match
1,0,2000,5,434.97,psychophysics,626,f,f,image_first,f,TRUE,方形,img/C_ambi40.png,circle,square,1,exp1,mismatch
1,0,2000,5,434.97,psychophysics,621,j,j,image_first,j,TRUE,方形,img/S_ambi40.png,square,square,1,exp1,match
1,0,2000,5,434.97,psychophysics,558,f,f,image_first,f,TRUE,三角,img/S_ambi40.png,square,triangle,1,exp1,mismatch
1,0,2000,5,434.97,psychophysics,575,j,j,image_first,j,TRUE,三角,img/T_ambi40.png,triangle,triangle,1,exp1,match
1,0,2000,5,434.97,psychophysics,630,f,f,image_first,f,TRUE,圆形,img/S_ambi40.png,square,circle,1,exp1,mismatch
1,0,2000,5,434.97,psychophysics,634,f,f,image_first,f,TRUE,方形,img/C_ambi40.png,circle,square,1,exp1,mismatch
1,0,2000,5,434.97,psychophysics,565,j,j,image_first,j,TRUE,方形,img/S_ambi40.png,square,square,1,exp1,match
1,0,2000,5,434.97,psychophysics,576,f,f,image_first,f,TRUE,方形,img/T_ambi40.png,triangle,square,1,exp1,mismatch
1,0,2000,5,434.97,psychophysics,546,j,j,image_first,j,TRUE,圆形,img/C_ambi40.png,circle,circle,1,exp1,match
1,0,2000,5,434.97,psychophysics,650,f,f,image_first,f,TRUE,三角,img/C_ambi40.png,circle,triangle,1,exp1,mismatch
1,0,2000,5,434.97,psychophysics,675,j,j,image_first,j,TRUE,圆形,img/C_ambi40.png,circle,circle,1,exp1,match
1,0,2000,5,434.97,psychophysics,602,f,f,image_first,f,TRUE,圆形,img/T_ambi40.png,triangle,circle,1,exp1,mismatch
1,0,2000,5,434.97,psychophysics,546,j,j,image_first,j,TRUE,方形,img/S_ambi40.png,square,square,1,exp1,match
1,0,2000,5,434.97,psychophysics,674,j,j,image_first,j,TRUE,三角,img/T_ambi40.png,triangle,triangle,1,exp1,match
1,0,2000,5,434.97,psychophysics,562,f,f,image_first,f,TRUE,三角,img/S_ambi40.png,square,triangle,1,exp1,mismatch
1,0,2000,5,434.97,psychophysics,689,f,f,word_first,f,TRUE,方形,img/T_ambi40.png,triangle,square,1,exp1,mismatch
1,0,2000,5,434.97,psychophysics,706,f,f,word_first,f,TRUE,三角,img/C_ambi40.png,circle,triangle,1,exp1,mismatch
1,0,2000,5,434.97,psychophysics,682,f,f,word_first,f,TRUE,圆形,img/S_ambi40.png,square,circle,1,exp1,mismatch
1,0,2000,5,434.97,psychophysics,612,j,j,word_first,j,TRUE,三角,img/T_ambi40.png,triangle,triangle,1,exp1,match
1,0,2000,5,434.97,psychophysics,590,j,j,word_first,j,TRUE,三角,img/T_ambi40.png,triangle,triangle,1,exp1,match
1,0,2000,5,434.97,psychophysics,572,f,f,word_first,f,TRUE,圆形,img/T_ambi40.png,triangle,circle,1,exp1,mismatch
1,0,2000,5,434.97,psychophysics,626,j,j,word_first,j,TRUE,圆形,img/C_ambi40.png,circle,circle,1,exp1,match
1,0,2000,5,434.97,psychophysics,605,f,f,word_first,f,TRUE,方形,img/C_ambi40.png,circle,square,1,exp1,mismatch
1,0,2000,5,434.97,psychophysics,609,f,f,word_first,f,TRUE,三角,img/S_ambi40.png,square,triangle,1,exp1,mismatch
1,0,2000,5,434.97,psychophysics,724,j,j,word_first,j,TRUE,方形,img/S_ambi40.png,square,square,1,exp1,match
1,0,2000,5,434.97,psychophysics,566,j,j,word_first,j,TRUE,圆形,img/C_ambi40.png,circle,circle,1,exp1,match
1,0,2000,5,434.97,psychophysics,566,j,j,word_first,j,TRUE,方形,img/S_ambi40.png,square,square,1,exp1,match
1,0,2000,5,434.97,psychophysics,552,f,f,word_first,f,TRUE,方形,img/T_ambi40.png,triangle,square,1,exp1,mismatch
1,0,2000,5,434.97,psychophysics,534,j,j,word_first,j,TRUE,圆形,img/C_ambi40.png,circle,circle,1,exp1,match
1,0,2000,5,434.97,psychophysics,806,f,f,word_first,f,TRUE,圆形,img/T_ambi40.png,triangle,circle,1,exp1,mismatch
1,0,2000,5,434.97,psychophysics,500,j,j,word_first,j,TRUE,方形,img/S_ambi40.png,square,square,1,exp1,match
1,0,2000,5,434.97,psychophysics,568,f,f,word_first,f,TRUE,三角,img/C_ambi40.png,circle,triangle,1,exp1,mismatch
1,0,2000,5,434.97,psychophysics,649,f,f,word_first,f,TRUE,圆形,img/S_ambi40.png,square,circle,1,exp1,mismatch
1,0,2000,5,434.97,psychophysics,937,j,j,word_first,j,TRUE,圆形,img/C_ambi40.png,circle,circle,1,exp1,match
1,0,2000,5,434.97,psychophysics,561,f,f,word_first,f,TRUE,三角,img/S_ambi40.png,square,triangle,1,exp1,mismatch
1,0,2000,5,434.97,psychophysics,587,j,j,word_first,j,TRUE,方形,img/S_ambi40.png,square,square,1,exp1,match
1,0,2000,5,434.97,psychophysics,569,j,j,word_first,j,TRUE,三角,img/T_ambi40.png,triangle,triangle,1,exp1,match
1,0,2000,5,434.97,psychophysics,594,f,f,word_first,f,TRUE,方形,img/C_ambi40.png,circle,square,1,exp1,mismatch
1,0,2000,5,434.97,psychophysics,662,j,j,word_first,j,TRUE,三角,img/T_ambi40.png,triangle,triangle,1,exp1,match
1,0,2000,5,434.97,psychophysics,535,j,j,word_first,j,TRUE,方形,img/S_ambi40.png,square,square,1,exp1,match
1,0,2000,5,434.97,psychophysics,531,j,j,word_first,j,TRUE,方形,img/S_ambi40.png,square,square,1,exp1,match
1,0,2000,5,434.97,psychophysics,491,j,j,word_first,j,TRUE,圆形,img/C_ambi40.png,circle,circle,1,exp1,match
1,0,2000,5,434.97,psychophysics,428,j,j,word_first,j,TRUE,圆形,img/C_ambi40.png,circle,circle,1,exp1,match
1,0,2000,5,434.97,psychophysics,632,f,f,word_first,f,TRUE,方形,img/T_ambi40.png,triangle,square,1,exp1,mismatch
1,0,2000,5,434.97,psychophysics,612,f,f,word_first,f,TRUE,圆形,img/T_ambi40.png,triangle,circle,1,exp1,mismatch
1,0,2000,5,434.97,psychophysics,651,f,f,word_first,f,TRUE,三角,img/S_ambi40.png,square,triangle,1,exp1,mismatch
1,0,2000,5,434.97,psychophysics,629,j,j,word_first,j,TRUE,三角,img/T_ambi40.png,triangle,triangle,1,exp1,match
1,0,2000,5,434.97,psychophysics,516,f,f,word_first,f,TRUE,三角,img/C_ambi40.png,circle,triangle,1,exp1,mismatch
1,0,2000,5,434.97,psychophysics,626,f,f,word_first,f,TRUE,方形,img/C_ambi40.png,circle,square,1,exp1,mismatch
1,0,2000,5,434.97,psychophysics,567,j,j,word_first,j,TRUE,三角,img/T_ambi40.png,triangle,triangle,1,exp1,match
1,0,2000,5,434.97,psychophysics,569,f,f,word_first,f,TRUE,圆形,img/S_ambi40.png,square,circle,1,exp1,mismatch
1,0,2000,5,434.97,psychophysics,589,f,f,word_first,f,TRUE,圆形,img/T_ambi40.png,triangle,circle,1,exp1,mismatch
1,0,2000,5,434.97,psychophysics,607,f,f,word_first,f,TRUE,圆形,img/S_ambi40.png,square,circle,1,exp1,mismatch
1,0,2000,5,434.97,psychophysics,640,j,j,word_first,j,TRUE,圆形,img/C_ambi40.png,circle,circle,1,exp1,match
1,0,2000,5,434.97,psychophysics,616,j,j,word_first,j,TRUE,三角,img/T_ambi40.png,triangle,triangle,1,exp1,match
1,0,2000,5,434.97,psychophysics,585,f,f,word_first,f,TRUE,方形,img/T_ambi40.png,triangle,square,1,exp1,mismatch
1,0,2000,5,434.97,psychophysics,616,f,f,word_first,f,TRUE,方形,img/C_ambi40.png,circle,square,1,exp1,mismatch
1,0,2000,5,434.97,psychophysics,618,j,j,word_first,j,TRUE,方形,img/S_ambi40.png,square,square,1,exp1,match
1,0,2000,5,434.97,psychophysics,567,j,j,word_first,j,TRUE,方形,img/S_ambi40.png,square,square,1,exp1,match
1,0,2000,5,434.97,psychophysics,627,j,j,word_first,j,TRUE,三角,img/T_ambi40.png,triangle,triangle,1,exp1,match
1,0,2000,5,434.97,psychophysics,663,f,f,word_first,f,TRUE,三角,img/S_ambi40.png,square,triangle,1,exp1,mismatch
1,0,2000,5,434.97,psychophysics,568,j,j,word_first,j,TRUE,圆形,img/C_ambi40.png,circle,circle,1,exp1,match
1,0,2000,5,434.97,psychophysics,601,f,f,word_first,f,TRUE,三角,img/C_ambi40.png,circle,triangle,1,exp1,mismatch
1,0,2000,5,434.97,psychophysics,690,f,f,word_first,f,TRUE,圆形,img/T_ambi40.png,triangle,circle,1,exp1,mismatch
1,0,2000,5,434.97,psychophysics,612,f,f,word_first,f,TRUE,三角,img/S_ambi40.png,square,triangle,1,exp1,mismatch
1,0,2000,5,434.97,psychophysics,605,j,j,word_first,j,TRUE,三角,img/T_ambi40.png,triangle,triangle,1,exp1,match
1,0,2000,5,434.97,psychophysics,617,j,j,word_first,j,TRUE,圆形,img/C_ambi40.png,circle,circle,1,exp1,match
1,0,2000,5,434.97,psychophysics,554,f,f,word_first,f,TRUE,方形,img/C_ambi40.png,circle,square,1,exp1,mismatch
1,0,2000,5,434.97,psychophysics,551,j,j,word_first,j,TRUE,方形,img/S_ambi40.png,square,square,1,exp1,match
1,0,2000,5,434.97,psychophysics,566,f,f,word_first,f,TRUE,圆形,img/S_ambi40.png,square,circle,1,exp1,mismatch
1,0,2000,5,434.97,psychophysics,606,f,f,word_first,f,TRUE,三角,img/C_ambi40.png,circle,triangle,1,exp1,mismatch
1,0,2000,5,434.97,psychophysics,587,j,j,word_first,j,TRUE,三角,img/T_ambi40.png,triangle,triangle,1,exp1,match
1,0,2000,5,434.97,psychophysics,547,j,j,word_first,j,TRUE,圆形,img/C_ambi40.png,circle,circle,1,exp1,match
1,0,2000,5,434.97,psychophysics,545,f,f,word_first,f,TRUE,方形,img/T_ambi40.png,triangle,square,1,exp1,mismatch
1,0,2000,5,434.97,psychophysics,514,j,j,word_first,j,TRUE,方形,img/S_ambi40.png,square,square,1,exp1,match
1,0,2000,5,434.97,psychophysics,616,j,j,word_first,j,TRUE,圆形,img/C_ambi40.png,circle,circle,1,exp1,match
1,0,2000,5,434.97,psychophysics,540,j,j,word_first,j,TRUE,圆形,img/C_ambi40.png,circle,circle,1,exp1,match
1,0,2000,5,434.97,psychophysics,633,j,j,word_first,j,TRUE,方形,img/S_ambi40.png,square,square,1,exp1,match
1,0,2000,5,434.97,psychophysics,548,f,f,word_first,f,TRUE,圆形,img/T_ambi40.png,triangle,circle,1,exp1,mismatch
1,0,2000,5,434.97,psychophysics,655,f,f,word_first,f,TRUE,方形,img/T_ambi40.png,triangle,square,1,exp1,mismatch
1,0,2000,5,434.97,psychophysics,542,j,j,word_first,j,TRUE,方形,img/S_ambi40.png,square,square,1,exp1,match
1,0,2000,5,434.97,psychophysics,506,f,f,word_first,f,TRUE,三角,img/C_ambi40.png,circle,triangle,1,exp1,mismatch
1,0,2000,5,434.97,psychophysics,513,j,j,word_first,j,TRUE,三角,img/T_ambi40.png,triangle,triangle,1,exp1,match
1,0,2000,5,434.97,psychophysics,568,f,f,word_first,f,TRUE,三角,img/S_ambi40.png,square,triangle,1,exp1,mismatch
1,0,2000,5,434.97,psychophysics,543,f,f,word_first,f,TRUE,圆形,img/S_ambi40.png,square,circle,1,exp1,mismatch
1,0,2000,5,434.97,psychophysics,457,j,j,word_first,j,TRUE,三角,img/T_ambi40.png,triangle,triangle,1,exp1,match
1,0,2000,5,434.97,psychophysics,557,f,f,word_first,f,TRUE,方形,img/C_ambi40.png,circle,square,1,exp1,mismatch
1,0,2000,5,434.97,psychophysics,534,f,f,word_first,f,TRUE,三角,img/C_ambi40.png,circle,triangle,1,exp1,mismatch
1,0,2000,5,434.97,psychophysics,415,j,j,word_first,j,TRUE,圆形,img/C_ambi40.png,circle,circle,1,exp1,match
1,0,2000,5,434.97,psychophysics,545,j,j,word_first,j,TRUE,三角,img/T_ambi40.png,triangle,triangle,1,exp1,match
1,0,2000,5,434.97,psychophysics,557,j,j,word_first,j,TRUE,方形,img/S_ambi40.png,square,square,1,exp1,match
1,0,2000,5,434.97,psychophysics,509,f,f,word_first,f,TRUE,三角,img/S_ambi40.png,square,triangle,1,exp1,mismatch
1,0,2000,5,434.97,psychophysics,513,f,f,word_first,f,TRUE,圆形,img/T_ambi40.png,triangle,circle,1,exp1,mismatch
1,0,2000,5,434.97,psychophysics,527,j,j,word_first,j,TRUE,圆形,img/C_ambi40.png,circle,circle,1,exp1,match
1,0,2000,5,434.97,psychophysics,560,f,f,word_first,f,TRUE,方形,img/T_ambi40.png,triangle,square,1,exp1,mismatch
1,0,2000,5,434.97,psychophysics,613,f,f,word_first,f,TRUE,圆形,img/S_ambi40.png,square,circle,1,exp1,mismatch
1,0,2000,5,434.97,psychophysics,530,j,j,word_first,j,TRUE,方形,img/S_ambi40.png,square,square,1,exp1,match
1,0,2000,5,434.97,psychophysics,516,j,j,word_first,j,TRUE,三角,img/T_ambi40.png,triangle,triangle,1,exp1,match
1,0,2000,5,434.97,psychophysics,522,f,f,word_first,f,TRUE,方形,img/C_ambi40.png,circle,square,1,exp1,mismatch
1,0,2000,5,434.97,psychophysics,577,f,f,word_first,f,TRUE,圆形,img/T_ambi40.png,triangle,circle,1,exp1,mismatch
1,0,2000,5,434.97,psychophysics,572,f,f,word_first,f,TRUE,三角,img/C_ambi40.png,circle,triangle,1,exp1,mismatch
1,0,2000,5,434.97,psychophysics,524,j,j,word_first,j,TRUE,圆形,img/C_ambi40.png,circle,circle,1,exp1,match
1,0,2000,5,434.97,psychophysics,558,f,f,word_first,f,TRUE,方形,img/T_ambi40.png,triangle,square,1,exp1,mismatch
1,0,2000,5,434.97,psychophysics,619,j,j,word_first,j,TRUE,方形,img/S_ambi40.png,square,square,1,exp1,match
1,0,2000,5,434.97,psychophysics,530,j,j,word_first,j,TRUE,三角,img/T_ambi40.png,triangle,triangle,1,exp1,match
1,0,2000,5,434.97,psychophysics,529,f,f,word_first,f,TRUE,圆形,img/S_ambi40.png,square,circle,1,exp1,mismatch
1,0,2000,5,434.97,psychophysics,518,j,j,word_first,j,TRUE,方形,img/S_ambi40.png,square,square,1,exp1,match
1,0,2000,5,434.97,psychophysics,511,j,j,word_first,j,TRUE,三角,img/T_ambi40.png,triangle,triangle,1,exp1,match
1,0,2000,5,434.97,psychophysics,630,j,j,word_first,j,TRUE,圆形,img/C_ambi40.png,circle,circle,1,exp1,match
1,0,2000,5,434.97,psychophysics,610,f,f,word_first,f,TRUE,方形,img/C_ambi40.png,circle,square,1,exp1,mismatch
1,0,2000,5,434.97,psychophysics,525,f,f,word_first,f,TRUE,三角,img/S_ambi40.png,square,triangle,1,exp1,mismatch
1,0,2000,5,434.97,psychophysics,560,f,f,word_first,f,TRUE,圆形,img/S_ambi40.png,square,circle,1,exp1,mismatch
1,0,2000,5,434.97,psychophysics,532,f,f,word_first,f,TRUE,方形,img/C_ambi40.png,circle,square,1,exp1,mismatch
1,0,2000,5,434.97,psychophysics,586,f,f,word_first,f,TRUE,方形,img/T_ambi40.png,triangle,square,1,exp1,mismatch
1,0,2000,5,434.97,psychophysics,620,f,f,word_first,f,TRUE,三角,img/C_ambi40.png,circle,triangle,1,exp1,mismatch
1,0,2000,5,434.97,psychophysics,537,f,f,word_first,f,TRUE,圆形,img/T_ambi40.png,triangle,circle,1,exp1,mismatch
1,0,2000,5,434.97,psychophysics,537,j,j,word_first,j,TRUE,三角,img/T_ambi40.png,triangle,triangle,1,exp1,match
1,0,2000,5,434.97,psychophysics,592,j,j,word_first,j,TRUE,方形,img/S_ambi40.png,square,square,1,exp1,match
1,0,2000,5,434.97,psychophysics,638,j,j,word_first,j,TRUE,方形,img/S_ambi40.png,square,square,1,exp1,match
1,0,2000,5,434.97,psychophysics,693,j,j,word_first,j,TRUE,圆形,img/C_ambi40.png,circle,circle,1,exp1,match
1,0,2000,5,434.97,psychophysics,572,f,f,word_first,f,TRUE,三角,img/S_ambi40.png,square,triangle,1,exp1,mismatch
1,0,2000,5,434.97,psychophysics,546,j,j,word_first,j,TRUE,三角,img/T_ambi40.png,triangle,triangle,1,exp1,match
1,0,2000,5,434.97,psychophysics,584,j,j,word_first,j,TRUE,圆形,img/C_ambi40.png,circle,circle,1,exp1,match
1,0,2000,5,434.97,psychophysics,549,f,f,word_first,f,TRUE,圆形,img/T_ambi40.png,triangle,circle,1,exp1,mismatch
1,0,2000,5,434.97,psychophysics,570,j,j,word_first,j,TRUE,三角,img/T_ambi40.png,triangle,triangle,1,exp1,match
1,0,2000,5,434.97,psychophysics,518,j,j,word_first,j,TRUE,方形,img/S_ambi40.png,square,square,1,exp1,match
1,0,2000,5,434.97,psychophysics,521,j,j,word_first,j,TRUE,三角,img/T_ambi40.png,triangle,triangle,1,exp1,match
1,0,2000,5,434.97,psychophysics,430,j,j,word_first,j,TRUE,圆形,img/C_ambi40.png,circle,circle,1,exp1,match
1,0,2000,5,434.97,psychophysics,566,f,f,word_first,f,TRUE,圆形,img/S_ambi40.png,square,circle,1,exp1,mismatch
1,0,2000,5,434.97,psychophysics,582,j,j,word_first,j,TRUE,圆形,img/C_ambi40.png,circle,circle,1,exp1,match
1,0,2000,5,434.97,psychophysics,577,f,f,word_first,f,TRUE,三角,img/S_ambi40.png,square,triangle,1,exp1,mismatch
1,0,2000,5,434.97,psychophysics,575,f,f,word_first,f,TRUE,三角,img/C_ambi40.png,circle,triangle,1,exp1,mismatch
1,0,2000,5,434.97,psychophysics,563,f,f,word_first,f,TRUE,方形,img/T_ambi40.png,triangle,square,1,exp1,mismatch
1,0,2000,5,434.97,psychophysics,519,j,j,word_first,j,TRUE,方形,img/S_ambi40.png,square,square,1,exp1,match
1,0,2000,5,434.97,psychophysics,693,f,f,word_first,f,TRUE,方形,img/C_ambi40.png,circle,square,1,exp1,mismatch
1,0,2000,5,434.97,psychophysics,682,f,f,word_first,f,TRUE,三角,img/C_ambi40.png,circle,triangle,1,exp1,mismatch
1,0,2000,5,434.97,psychophysics,539,j,j,word_first,j,TRUE,三角,img/T_ambi40.png,triangle,triangle,1,exp1,match
1,0,2000,5,434.97,psychophysics,478,j,j,word_first,j,TRUE,方形,img/S_ambi40.png,square,square,1,exp1,match
1,0,2000,5,434.97,psychophysics,526,j,j,word_first,j,TRUE,方形,img/S_ambi40.png,square,square,1,exp1,match
1,0,2000,5,434.97,psychophysics,488,j,j,word_first,j,TRUE,圆形,img/C_ambi40.png,circle,circle,1,exp1,match
1,0,2000,5,434.97,psychophysics,537,f,f,word_first,f,TRUE,方形,img/C_ambi40.png,circle,square,1,exp1,mismatch
1,0,2000,5,434.97,psychophysics,595,f,f,word_first,f,TRUE,方形,img/T_ambi40.png,triangle,square,1,exp1,mismatch
1,0,2000,5,434.97,psychophysics,1051,f,f,word_first,f,TRUE,三角,img/S_ambi40.png,square,triangle,1,exp1,mismatch
1,0,2000,5,434.97,psychophysics,589,f,f,word_first,f,TRUE,圆形,img/S_ambi40.png,square,circle,1,exp1,mismatch
1,0,2000,5,434.97,psychophysics,533,j,j,word_first,j,TRUE,圆形,img/C_ambi40.png,circle,circle,1,exp1,match
1,0,2000,5,434.97,psychophysics,595,f,f,word_first,f,TRUE,圆形,img/T_ambi40.png,triangle,circle,1,exp1,mismatch
1,0,2000,5,434.97,psychophysics,541,j,j,word_first,j,TRUE,三角,img/T_ambi40.png,triangle,triangle,1,exp1,match
1,0,2000,5,434.97,psychophysics,561,f,f,word_first,j,FALSE,方形,img/S_ambi40.png,square,square,0,exp1,match
1,0,2000,5,434.97,psychophysics,575,f,f,word_first,f,TRUE,三角,img/S_ambi40.png,square,triangle,1,exp1,mismatch
1,0,2000,5,434.97,psychophysics,667,f,f,word_first,f,TRUE,圆形,img/S_ambi40.png,square,circle,1,exp1,mismatch
1,0,2000,5,434.97,psychophysics,608,f,f,word_first,f,TRUE,方形,img/C_ambi40.png,circle,square,1,exp1,mismatch
1,0,2000,5,434.97,psychophysics,524,j,j,word_first,j,TRUE,三角,img/T_ambi40.png,triangle,triangle,1,exp1,match
1,0,2000,5,434.97,psychophysics,558,j,j,word_first,j,TRUE,圆形,img/C_ambi40.png,circle,circle,1,exp1,match
1,0,2000,5,434.97,psychophysics,589,f,f,word_first,f,TRUE,圆形,img/T_ambi40.png,triangle,circle,1,exp1,mismatch
1,0,2000,5,434.97,psychophysics,544,j,j,word_first,j,TRUE,圆形,img/C_ambi40.png,circle,circle,1,exp1,match
1,0,2000,5,434.97,psychophysics,501,j,j,word_first,j,TRUE,方形,img/S_ambi40.png,square,square,1,exp1,match
1,0,2000,5,434.97,psychophysics,567,f,f,word_first,f,TRUE,方形,img/T_ambi40.png,triangle,square,1,exp1,mismatch
1,0,2000,5,434.97,psychophysics,625,f,f,word_first,f,TRUE,三角,img/C_ambi40.png,circle,triangle,1,exp1,mismatch
1,0,2000,5,434.97,psychophysics,478,j,j,word_first,j,TRUE,三角,img/T_ambi40.png,triangle,triangle,1,exp1,match
1,0,2000,5,434.97,psychophysics,580,f,f,word_first,f,TRUE,方形,img/C_ambi40.png,circle,square,1,exp1,mismatch
1,0,2000,5,434.97,psychophysics,622,f,f,word_first,f,TRUE,圆形,img/T_ambi40.png,triangle,circle,1,exp1,mismatch
1,0,2000,5,434.97,psychophysics,562,f,f,word_first,f,TRUE,三角,img/C_ambi40.png,circle,triangle,1,exp1,mismatch
1,0,2000,5,434.97,psychophysics,483,j,j,word_first,j,TRUE,三角,img/T_ambi40.png,triangle,triangle,1,exp1,match
1,0,2000,5,434.97,psychophysics,510,j,j,word_first,j,TRUE,三角,img/T_ambi40.png,triangle,triangle,1,exp1,match
1,0,2000,5,434.97,psychophysics,453,j,j,word_first,f,FALSE,三角,img/S_ambi40.png,square,triangle,0,exp1,mismatch
1,0,2000,5,434.97,psychophysics,682,f,f,word_first,f,TRUE,方形,img/T_ambi40.png,triangle,square,1,exp1,mismatch
1,0,2000,5,434.97,psychophysics,614,j,j,word_first,j,TRUE,方形,img/S_ambi40.png,square,square,1,exp1,match
1,0,2000,5,434.97,psychophysics,650,f,f,word_first,f,TRUE,圆形,img/S_ambi40.png,square,circle,1,exp1,mismatch
1,0,2000,5,434.97,psychophysics,899,j,j,word_first,j,TRUE,圆形,img/C_ambi40.png,circle,circle,1,exp1,match
1,0,2000,5,434.97,psychophysics,517,j,j,word_first,j,TRUE,圆形,img/C_ambi40.png,circle,circle,1,exp1,match
1,0,2000,5,434.97,psychophysics,569,j,j,word_first,j,TRUE,方形,img/S_ambi40.png,square,square,1,exp1,match
1,0,2000,5,434.97,psychophysics,641,f,f,word_first,f,TRUE,圆形,img/T_ambi40.png,triangle,circle,1,exp1,mismatch
1,0,2000,5,434.97,psychophysics,645,f,f,word_first,f,TRUE,三角,img/C_ambi40.png,circle,triangle,1,exp1,mismatch
1,0,2000,5,434.97,psychophysics,523,j,j,word_first,j,TRUE,方形,img/S_ambi40.png,square,square,1,exp1,match
1,0,2000,5,434.97,psychophysics,594,j,j,word_first,j,TRUE,三角,img/T_ambi40.png,triangle,triangle,1,exp1,match
1,0,2000,5,434.97,psychophysics,566,j,j,word_first,j,TRUE,三角,img/T_ambi40.png,triangle,triangle,1,exp1,match
1,0,2000,5,434.97,psychophysics,556,j,j,word_first,j,TRUE,圆形,img/C_ambi40.png,circle,circle,1,exp1,match
1,0,2000,5,434.97,psychophysics,526,j,j,word_first,j,TRUE,圆形,img/C_ambi40.png,circle,circle,1,exp1,match
1,0,2000,5,434.97,psychophysics,569,f,f,word_first,f,TRUE,方形,img/T_ambi40.png,triangle,square,1,exp1,mismatch
1,0,2000,5,434.97,psychophysics,880,j,j,word_first,f,FALSE,圆形,img/S_ambi40.png,square,circle,0,exp1,mismatch
1,0,2000,5,434.97,psychophysics,496,j,j,word_first,j,TRUE,方形,img/S_ambi40.png,square,square,1,exp1,match
1,0,2000,5,434.97,psychophysics,616,f,f,word_first,f,TRUE,方形,img/C_ambi40.png,circle,square,1,exp1,mismatch
1,0,2000,5,434.97,psychophysics,639,f,f,word_first,f,TRUE,三角,img/S_ambi40.png,square,triangle,1,exp1,mismatch
1,0,2000,5,434.97,psychophysics,649,f,f,word_first,f,TRUE,圆形,img/T_ambi40.png,triangle,circle,1,exp1,mismatch
1,0,2000,5,434.97,psychophysics,574,j,j,word_first,j,TRUE,圆形,img/C_ambi40.png,circle,circle,1,exp1,match
1,0,2000,5,434.97,psychophysics,517,j,j,word_first,j,TRUE,方形,img/S_ambi40.png,square,square,1,exp1,match
1,0,2000,5,434.97,psychophysics,609,f,f,word_first,f,TRUE,方形,img/T_ambi40.png,triangle,square,1,exp1,mismatch
1,0,2000,5,434.97,psychophysics,536,j,j,word_first,j,TRUE,三角,img/T_ambi40.png,triangle,triangle,1,exp1,match
1,0,2000,5,434.97,psychophysics,505,j,j,word_first,j,TRUE,三角,img/T_ambi40.png,triangle,triangle,1,exp1,match
1,0,2000,5,434.97,psychophysics,626,f,f,word_first,f,TRUE,三角,img/S_ambi40.png,square,triangle,1,exp1,mismatch
1,0,2000,5,434.97,psychophysics,598,f,f,word_first,f,TRUE,三角,img/C_ambi40.png,circle,triangle,1,exp1,mismatch
1,0,2000,5,434.97,psychophysics,617,f,f,word_first,f,TRUE,圆形,img/S_ambi40.png,square,circle,1,exp1,mismatch
1,0,2000,5,434.97,psychophysics,606,f,f,word_first,f,TRUE,方形,img/C_ambi40.png,circle,square,1,exp1,mismatch
1,0,2000,5,434.97,psychophysics,556,j,j,word_first,j,TRUE,圆形,img/C_ambi40.png,circle,circle,1,exp1,match
1,0,2000,5,434.97,psychophysics,551,j,j,word_first,j,TRUE,方形,img/S_ambi40.png,square,square,1,exp1,match
1,0,2000,5,434.97,psychophysics,584,j,j,word_first,j,TRUE,方形,img/S_ambi40.png,square,square,1,exp1,match
1,0,2000,5,434.97,psychophysics,612,j,j,word_first,j,TRUE,三角,img/T_ambi40.png,triangle,triangle,1,exp1,match
1,0,2000,5,434.97,psychophysics,562,f,f,word_first,f,TRUE,三角,img/C_ambi40.png,circle,triangle,1,exp1,mismatch
1,0,2000,5,434.97,psychophysics,493,j,j,word_first,j,TRUE,圆形,img/C_ambi40.png,circle,circle,1,exp1,match
1,0,2000,5,434.97,psychophysics,528,f,f,word_first,f,TRUE,圆形,img/T_ambi40.png,triangle,circle,1,exp1,mismatch
1,0,2000,5,434.97,psychophysics,592,f,f,word_first,f,TRUE,方形,img/T_ambi40.png,triangle,square,1,exp1,mismatch
1,0,2000,5,434.97,psychophysics,601,f,f,word_first,f,TRUE,圆形,img/S_ambi40.png,square,circle,1,exp1,mismatch
1,0,2000,5,434.97,psychophysics,621,f,f,word_first,f,TRUE,三角,img/S_ambi40.png,square,triangle,1,exp1,mismatch
1,0,2000,5,434.97,psychophysics,506,j,j,word_first,j,TRUE,圆形,img/C_ambi40.png,circle,circle,1,exp1,match
1,0,2000,5,434.97,psychophysics,522,j,j,word_first,j,TRUE,三角,img/T_ambi40.png,triangle,triangle,1,exp1,match
1,0,2000,5,434.97,psychophysics,552,j,j,word_first,j,TRUE,方形,img/S_ambi40.png,square,square,1,exp1,match
1,0,2000,5,434.97,psychophysics,785,f,f,word_first,f,TRUE,方形,img/C_ambi40.png,circle,square,1,exp1,mismatch
1,0,2000,5,434.97,psychophysics,723,f,f,word_first,f,TRUE,圆形,img/S_ambi40.png,square,circle,1,exp1,mismatch
1,0,2000,5,434.97,psychophysics,715,f,f,word_first,f,TRUE,方形,img/C_ambi40.png,circle,square,1,exp1,mismatch
1,0,2000,5,434.97,psychophysics,560,j,j,word_first,j,TRUE,三角,img/T_ambi40.png,triangle,triangle,1,exp1,match
1,0,2000,5,434.97,psychophysics,587,f,f,word_first,f,TRUE,三角,img/S_ambi40.png,square,triangle,1,exp1,mismatch
1,0,2000,5,434.97,psychophysics,564,f,f,word_first,f,TRUE,三角,img/C_ambi40.png,circle,triangle,1,exp1,mismatch
1,0,2000,5,434.97,psychophysics,560,j,j,word_first,j,TRUE,方形,img/S_ambi40.png,square,square,1,exp1,match
1,0,2000,5,434.97,psychophysics,576,j,j,word_first,j,TRUE,方形,img/S_ambi40.png,square,square,1,exp1,match
1,0,2000,5,434.97,psychophysics,543,j,j,word_first,j,TRUE,圆形,img/C_ambi40.png,circle,circle,1,exp1,match
1,0,2000,5,434.97,psychophysics,582,f,f,word_first,f,TRUE,方形,img/T_ambi40.png,triangle,square,1,exp1,mismatch
1,0,2000,5,434.97,psychophysics,511,j,j,word_first,j,TRUE,三角,img/T_ambi40.png,triangle,triangle,1,exp1,match
1,0,2000,5,434.97,psychophysics,535,j,j,word_first,j,TRUE,圆形,img/C_ambi40.png,circle,circle,1,exp1,match
1,0,2000,5,434.97,psychophysics,619,f,f,word_first,f,TRUE,圆形,img/T_ambi40.png,triangle,circle,1,exp1,mismatch
1,0,2000,5,434.97,psychophysics,509,j,j,word_first,j,TRUE,方形,img/S_ambi40.png,square,square,1,exp1,match
1,0,2000,5,434.97,psychophysics,629,f,f,word_first,f,TRUE,方形,img/T_ambi40.png,triangle,square,1,exp1,mismatch
1,0,2000,5,434.97,psychophysics,652,f,f,word_first,f,TRUE,三角,img/S_ambi40.png,square,triangle,1,exp1,mismatch
1,0,2000,5,434.97,psychophysics,509,j,j,word_first,j,TRUE,方形,img/S_ambi40.png,square,square,1,exp1,match
1,0,2000,5,434.97,psychophysics,531,j,j,word_first,j,TRUE,圆形,img/C_ambi40.png,circle,circle,1,exp1,match
1,0,2000,5,434.97,psychophysics,474,j,j,word_first,j,TRUE,圆形,img/C_ambi40.png,circle,circle,1,exp1,match
1,0,2000,5,434.97,psychophysics,542,f,f,word_first,f,TRUE,三角,img/C_ambi40.png,circle,triangle,1,exp1,mismatch
1,0,2000,5,434.97,psychophysics,572,f,f,word_first,f,TRUE,方形,img/C_ambi40.png,circle,square,1,exp1,mismatch
1,0,2000,5,434.97,psychophysics,592,f,f,word_first,f,TRUE,圆形,img/S_ambi40.png,square,circle,1,exp1,mismatch
1,0,2000,5,434.97,psychophysics,542,j,j,word_first,j,TRUE,三角,img/T_ambi40.png,triangle,triangle,1,exp1,match
1,0,2000,5,434.97,psychophysics,533,j,j,word_first,j,TRUE,三角,img/T_ambi40.png,triangle,triangle,1,exp1,match
1,0,2000,5,434.97,psychophysics,582,f,f,word_first,f,TRUE,圆形,img/T_ambi40.png,triangle,circle,1,exp1,mismatch
1,0,2000,5,434.97,psychophysics,494,j,j,word_first,j,TRUE,圆形,img/C_ambi40.png,circle,circle,1,exp1,match
1,0,2000,5,434.97,psychophysics,594,j,j,word_first,j,TRUE,三角,img/T_ambi40.png,triangle,triangle,1,exp1,match
1,0,2000,5,434.97,psychophysics,554,j,j,word_first,j,TRUE,方形,img/S_ambi40.png,square,square,1,exp1,match
1,0,2000,5,434.97,psychophysics,464,j,j,word_first,j,TRUE,方形,img/S_ambi40.png,square,square,1,exp1,match
1,0,2000,5,434.97,psychophysics,458,j,j,word_first,j,TRUE,圆形,img/C_ambi40.png,circle,circle,1,exp1,match
1,0,2000,5,434.97,psychophysics,570,f,f,word_first,f,TRUE,圆形,img/S_ambi40.png,square,circle,1,exp1,mismatch
1,0,2000,5,434.97,psychophysics,628,f,f,word_first,f,TRUE,方形,img/T_ambi40.png,triangle,square,1,exp1,mismatch
1,0,2000,5,434.97,psychophysics,525,j,j,word_first,j,TRUE,三角,img/T_ambi40.png,triangle,triangle,1,exp1,match
1,0,2000,5,434.97,psychophysics,560,f,f,word_first,f,TRUE,三角,img/C_ambi40.png,circle,triangle,1,exp1,mismatch
1,0,2000,5,434.97,psychophysics,578,f,f,word_first,f,TRUE,圆形,img/T_ambi40.png,triangle,circle,1,exp1,mismatch
1,0,2000,5,434.97,psychophysics,629,f,f,word_first,f,TRUE,三角,img/S_ambi40.png,square,triangle,1,exp1,mismatch
1,0,2000,5,434.97,psychophysics,678,f,f,word_first,f,TRUE,方形,img/C_ambi40.png,circle,square,1,exp1,mismatch
1,0,2000,5,434.97,psychophysics,546,j,j,word_first,j,TRUE,方形,img/S_ambi40.png,square,square,1,exp1,match
1,0,2000,5,434.97,psychophysics,532,j,j,word_first,j,TRUE,三角,img/T_ambi40.png,triangle,triangle,1,exp1,match
1,0,2000,5,434.97,psychophysics,610,f,f,word_first,f,TRUE,圆形,img/T_ambi40.png,triangle,circle,1,exp1,mismatch
1,0,2000,5,434.97,psychophysics,715,f,f,word_first,f,TRUE,三角,img/C_ambi40.png,circle,triangle,1,exp1,mismatch
1,0,2000,5,434.97,psychophysics,587,j,j,word_first,j,TRUE,方形,img/S_ambi40.png,square,square,1,exp1,match
1,0,2000,5,434.97,psychophysics,566,j,j,word_first,j,TRUE,三角,img/T_ambi40.png,triangle,triangle,1,exp1,match
1,0,2000,5,434.97,psychophysics,518,j,j,word_first,j,TRUE,圆形,img/C_ambi40.png,circle,circle,1,exp1,match
1,0,2000,5,434.97,psychophysics,631,f,f,word_first,f,TRUE,三角,img/S_ambi40.png,square,triangle,1,exp1,mismatch
1,0,2000,5,434.97,psychophysics,556,j,j,word_first,j,TRUE,圆形,img/C_ambi40.png,circle,circle,1,exp1,match
1,0,2000,5,434.97,psychophysics,612,f,f,word_first,f,TRUE,圆形,img/S_ambi40.png,square,circle,1,exp1,mismatch
1,0,2000,5,434.97,psychophysics,702,f,f,word_first,f,TRUE,方形,img/C_ambi40.png,circle,square,1,exp1,mismatch
1,0,2000,5,434.97,psychophysics,657,f,f,word_first,f,TRUE,方形,img/T_ambi40.png,triangle,square,1,exp1,mismatch
1,0,2000,5,434.97,psychophysics,961,j,j,simultaneous,j,TRUE,圆形,img/C_ambi40.png,circle,circle,1,exp1,match
1,0,2000,5,434.97,psychophysics,1181,j,j,simultaneous,f,FALSE,圆形,img/T_ambi40.png,triangle,circle,0,exp1,mismatch
1,0,2000,5,434.97,psychophysics,697,j,j,simultaneous,j,TRUE,方形,img/S_ambi40.png,square,square,1,exp1,match
1,0,2000,5,434.97,psychophysics,799,f,f,simultaneous,f,TRUE,三角,img/C_ambi40.png,circle,triangle,1,exp1,mismatch
1,0,2000,5,434.97,psychophysics,875,f,f,simultaneous,f,TRUE,方形,img/T_ambi40.png,triangle,square,1,exp1,mismatch
1,0,2000,5,434.97,psychophysics,823,f,f,simultaneous,f,TRUE,三角,img/S_ambi40.png,square,triangle,1,exp1,mismatch
1,0,2000,5,434.97,psychophysics,737,j,j,simultaneous,j,TRUE,方形,img/S_ambi40.png,square,square,1,exp1,match
1,0,2000,5,434.97,psychophysics,708,j,j,simultaneous,j,TRUE,三角,img/T_ambi40.png,triangle,triangle,1,exp1,match
1,0,2000,5,434.97,psychophysics,660,j,j,simultaneous,j,TRUE,圆形,img/C_ambi40.png,circle,circle,1,exp1,match
1,0,2000,5,434.97,psychophysics,767,f,f,simultaneous,f,TRUE,方形,img/C_ambi40.png,circle,square,1,exp1,mismatch
1,0,2000,5,434.97,psychophysics,883,f,f,simultaneous,f,TRUE,圆形,img/S_ambi40.png,square,circle,1,exp1,mismatch
1,0,2000,5,434.97,psychophysics,733,j,j,simultaneous,j,TRUE,三角,img/T_ambi40.png,triangle,triangle,1,exp1,match
1,0,2000,5,434.97,psychophysics,769,f,f,simultaneous,f,TRUE,圆形,img/T_ambi40.png,triangle,circle,1,exp1,mismatch
1,0,2000,5,434.97,psychophysics,649,j,j,simultaneous,j,TRUE,圆形,img/C_ambi40.png,circle,circle,1,exp1,match
1,0,2000,5,434.97,psychophysics,735,f,f,simultaneous,f,TRUE,三角,img/C_ambi40.png,circle,triangle,1,exp1,mismatch
1,0,2000,5,434.97,psychophysics,894,f,f,simultaneous,f,TRUE,方形,img/T_ambi40.png,triangle,square,1,exp1,mismatch
1,0,2000,5,434.97,psychophysics,676,j,j,simultaneous,j,TRUE,三角,img/T_ambi40.png,triangle,triangle,1,exp1,match
1,0,2000,5,434.97,psychophysics,621,j,j,simultaneous,j,TRUE,三角,img/T_ambi40.png,triangle,triangle,1,exp1,match
1,0,2000,5,434.97,psychophysics,731,f,f,simultaneous,f,TRUE,方形,img/C_ambi40.png,circle,square,1,exp1,mismatch
1,0,2000,5,434.97,psychophysics,743,j,j,simultaneous,j,TRUE,方形,img/S_ambi40.png,square,square,1,exp1,match
1,0,2000,5,434.97,psychophysics,705,f,f,simultaneous,f,TRUE,圆形,img/S_ambi40.png,square,circle,1,exp1,mismatch
1,0,2000,5,434.97,psychophysics,644,j,j,simultaneous,j,TRUE,方形,img/S_ambi40.png,square,square,1,exp1,match
1,0,2000,5,434.97,psychophysics,662,f,f,simultaneous,f,TRUE,三角,img/S_ambi40.png,square,triangle,1,exp1,mismatch
1,0,2000,5,434.97,psychophysics,661,j,j,simultaneous,j,TRUE,圆形,img/C_ambi40.png,circle,circle,1,exp1,match
1,0,2000,5,434.97,psychophysics,808,j,j,simultaneous,j,TRUE,方形,img/S_ambi40.png,square,square,1,exp1,match
1,0,2000,5,434.97,psychophysics,764,f,f,simultaneous,f,TRUE,方形,img/T_ambi40.png,triangle,square,1,exp1,mismatch
1,0,2000,5,434.97,psychophysics,638,j,j,simultaneous,j,TRUE,圆形,img/C_ambi40.png,circle,circle,1,exp1,match
1,0,2000,5,434.97,psychophysics,777,f,f,simultaneous,f,TRUE,方形,img/C_ambi40.png,circle,square,1,exp1,mismatch
1,0,2000,5,434.97,psychophysics,914,f,f,simultaneous,f,TRUE,圆形,img/S_ambi40.png,square,circle,1,exp1,mismatch
1,0,2000,5,434.97,psychophysics,799,f,f,simultaneous,f,TRUE,圆形,img/T_ambi40.png,triangle,circle,1,exp1,mismatch
1,0,2000,5,434.97,psychophysics,694,j,j,simultaneous,j,TRUE,三角,img/T_ambi40.png,triangle,triangle,1,exp1,match
1,0,2000,5,434.97,psychophysics,723,f,f,simultaneous,f,TRUE,三角,img/S_ambi40.png,square,triangle,1,exp1,mismatch
1,0,2000,5,434.97,psychophysics,621,j,j,simultaneous,j,TRUE,三角,img/T_ambi40.png,triangle,triangle,1,exp1,match
1,0,2000,5,434.97,psychophysics,672,f,f,simultaneous,f,TRUE,三角,img/C_ambi40.png,circle,triangle,1,exp1,mismatch
1,0,2000,5,434.97,psychophysics,636,j,j,simultaneous,j,TRUE,方形,img/S_ambi40.png,square,square,1,exp1,match
1,0,2000,5,434.97,psychophysics,599,j,j,simultaneous,j,TRUE,圆形,img/C_ambi40.png,circle,circle,1,exp1,match
1,0,2000,5,434.97,psychophysics,759,f,f,simultaneous,f,TRUE,圆形,img/T_ambi40.png,triangle,circle,1,exp1,mismatch
1,0,2000,5,434.97,psychophysics,622,j,j,simultaneous,j,TRUE,三角,img/T_ambi40.png,triangle,triangle,1,exp1,match
1,0,2000,5,434.97,psychophysics,667,f,f,simultaneous,f,TRUE,三角,img/C_ambi40.png,circle,triangle,1,exp1,mismatch
1,0,2000,5,434.97,psychophysics,729,f,f,simultaneous,f,TRUE,三角,img/S_ambi40.png,square,triangle,1,exp1,mismatch
1,0,2000,5,434.97,psychophysics,604,j,j,simultaneous,j,TRUE,圆形,img/C_ambi40.png,circle,circle,1,exp1,match
1,0,2000,5,434.97,psychophysics,670,f,f,simultaneous,f,TRUE,方形,img/T_ambi40.png,triangle,square,1,exp1,mismatch
1,0,2000,5,434.97,psychophysics,724,j,j,simultaneous,j,TRUE,方形,img/S_ambi40.png,square,square,1,exp1,match
1,0,2000,5,434.97,psychophysics,657,f,f,simultaneous,f,TRUE,圆形,img/S_ambi40.png,square,circle,1,exp1,mismatch
1,0,2000,5,434.97,psychophysics,689,j,j,simultaneous,j,TRUE,三角,img/T_ambi40.png,triangle,triangle,1,exp1,match
1,0,2000,5,434.97,psychophysics,742,j,j,simultaneous,j,TRUE,方形,img/S_ambi40.png,square,square,1,exp1,match
1,0,2000,5,434.97,psychophysics,738,f,f,simultaneous,f,TRUE,方形,img/C_ambi40.png,circle,square,1,exp1,mismatch
1,0,2000,5,434.97,psychophysics,654,j,j,simultaneous,j,TRUE,圆形,img/C_ambi40.png,circle,circle,1,exp1,match
1,0,2000,5,434.97,psychophysics,823,f,f,simultaneous,f,TRUE,圆形,img/S_ambi40.png,square,circle,1,exp1,mismatch
1,0,2000,5,434.97,psychophysics,573,j,j,simultaneous,j,TRUE,方形,img/S_ambi40.png,square,square,1,exp1,match
1,0,2000,5,434.97,psychophysics,735,f,f,simultaneous,f,TRUE,三角,img/S_ambi40.png,square,triangle,1,exp1,mismatch
1,0,2000,5,434.97,psychophysics,711,j,j,simultaneous,j,TRUE,方形,img/S_ambi40.png,square,square,1,exp1,match
1,0,2000,5,434.97,psychophysics,806,f,f,simultaneous,f,TRUE,方形,img/T_ambi40.png,triangle,square,1,exp1,mismatch
1,0,2000,5,434.97,psychophysics,584,j,j,simultaneous,j,TRUE,圆形,img/C_ambi40.png,circle,circle,1,exp1,match
1,0,2000,5,434.97,psychophysics,771,j,j,simultaneous,j,TRUE,三角,img/T_ambi40.png,triangle,triangle,1,exp1,match
1,0,2000,5,434.97,psychophysics,789,f,f,simultaneous,f,TRUE,方形,img/C_ambi40.png,circle,square,1,exp1,mismatch
1,0,2000,5,434.97,psychophysics,793,j,j,simultaneous,j,TRUE,三角,img/T_ambi40.png,triangle,triangle,1,exp1,match
1,0,2000,5,434.97,psychophysics,662,f,f,simultaneous,f,TRUE,三角,img/C_ambi40.png,circle,triangle,1,exp1,mismatch
1,0,2000,5,434.97,psychophysics,654,j,j,simultaneous,j,TRUE,圆形,img/C_ambi40.png,circle,circle,1,exp1,match
1,0,2000,5,434.97,psychophysics,1017,f,f,simultaneous,f,TRUE,圆形,img/T_ambi40.png,triangle,circle,1,exp1,mismatch
1,0,2000,5,434.97,psychophysics,995,f,f,simultaneous,f,TRUE,圆形,img/T_ambi40.png,triangle,circle,1,exp1,mismatch
1,0,2000,5,434.97,psychophysics,768,f,f,simultaneous,f,TRUE,圆形,img/S_ambi40.png,square,circle,1,exp1,mismatch
1,0,2000,5,434.97,psychophysics,685,j,j,simultaneous,j,TRUE,三角,img/T_ambi40.png,triangle,triangle,1,exp1,match
1,0,2000,5,434.97,psychophysics,658,j,j,simultaneous,j,TRUE,圆形,img/C_ambi40.png,circle,circle,1,exp1,match
1,0,2000,5,434.97,psychophysics,638,j,j,simultaneous,j,TRUE,三角,img/T_ambi40.png,triangle,triangle,1,exp1,match
1,0,2000,5,434.97,psychophysics,675,j,j,simultaneous,j,TRUE,方形,img/S_ambi40.png,square,square,1,exp1,match
1,0,2000,5,434.97,psychophysics,741,f,f,simultaneous,f,TRUE,方形,img/C_ambi40.png,circle,square,1,exp1,mismatch
1,0,2000,5,434.97,psychophysics,612,j,j,simultaneous,j,TRUE,圆形,img/C_ambi40.png,circle,circle,1,exp1,match
1,0,2000,5,434.97,psychophysics,690,f,f,simultaneous,f,TRUE,三角,img/S_ambi40.png,square,triangle,1,exp1,mismatch
1,0,2000,5,434.97,psychophysics,611,j,j,simultaneous,j,TRUE,方形,img/S_ambi40.png,square,square,1,exp1,match
1,0,2000,5,434.97,psychophysics,642,f,f,simultaneous,f,TRUE,方形,img/T_ambi40.png,triangle,square,1,exp1,mismatch
1,0,2000,5,434.97,psychophysics,684,j,j,simultaneous,f,FALSE,三角,img/C_ambi40.png,circle,triangle,0,exp1,mismatch
1,0,2000,5,434.97,psychophysics,593,j,j,simultaneous,j,TRUE,方形,img/S_ambi40.png,square,square,1,exp1,match
1,0,2000,5,434.97,psychophysics,636,j,j,simultaneous,j,TRUE,圆形,img/C_ambi40.png,circle,circle,1,exp1,match
1,0,2000,5,434.97,psychophysics,604,j,j,simultaneous,j,TRUE,方形,img/S_ambi40.png,square,square,1,exp1,match
1,0,2000,5,434.97,psychophysics,610,j,j,simultaneous,j,TRUE,圆形,img/C_ambi40.png,circle,circle,1,exp1,match
1,0,2000,5,434.97,psychophysics,686,j,j,simultaneous,j,TRUE,三角,img/T_ambi40.png,triangle,triangle,1,exp1,match
1,0,2000,5,434.97,psychophysics,750,f,f,simultaneous,f,TRUE,三角,img/S_ambi40.png,square,triangle,1,exp1,mismatch
1,0,2000,5,434.97,psychophysics,829,f,f,simultaneous,f,TRUE,圆形,img/S_ambi40.png,square,circle,1,exp1,mismatch
1,0,2000,5,434.97,psychophysics,640,j,j,simultaneous,j,TRUE,三角,img/T_ambi40.png,triangle,triangle,1,exp1,match
1,0,2000,5,434.97,psychophysics,673,f,f,simultaneous,f,TRUE,三角,img/C_ambi40.png,circle,triangle,1,exp1,mismatch
1,0,2000,5,434.97,psychophysics,836,f,f,simultaneous,f,TRUE,方形,img/C_ambi40.png,circle,square,1,exp1,mismatch
1,0,2000,5,434.97,psychophysics,824,f,f,simultaneous,f,TRUE,圆形,img/T_ambi40.png,triangle,circle,1,exp1,mismatch
1,0,2000,5,434.97,psychophysics,821,f,f,simultaneous,f,TRUE,方形,img/T_ambi40.png,triangle,square,1,exp1,mismatch
1,0,2000,5,434.97,psychophysics,661,f,f,simultaneous,f,TRUE,三角,img/S_ambi40.png,square,triangle,1,exp1,mismatch
1,0,2000,5,434.97,psychophysics,744,j,j,simultaneous,j,TRUE,三角,img/T_ambi40.png,triangle,triangle,1,exp1,match
1,0,2000,5,434.97,psychophysics,660,j,j,simultaneous,j,TRUE,三角,img/T_ambi40.png,triangle,triangle,1,exp1,match
1,0,2000,5,434.97,psychophysics,704,j,j,simultaneous,j,TRUE,圆形,img/C_ambi40.png,circle,circle,1,exp1,match
1,0,2000,5,434.97,psychophysics,789,j,j,simultaneous,j,TRUE,方形,img/S_ambi40.png,square,square,1,exp1,match
1,0,2000,5,434.97,psychophysics,716,j,j,simultaneous,j,TRUE,圆形,img/C_ambi40.png,circle,circle,1,exp1,match
1,0,2000,5,434.97,psychophysics,676,f,f,simultaneous,f,TRUE,三角,img/C_ambi40.png,circle,triangle,1,exp1,mismatch
1,0,2000,5,434.97,psychophysics,670,j,j,simultaneous,j,TRUE,方形,img/S_ambi40.png,square,square,1,exp1,match
1,0,2000,5,434.97,psychophysics,621,f,f,simultaneous,f,TRUE,圆形,img/S_ambi40.png,square,circle,1,exp1,mismatch
1,0,2000,5,434.97,psychophysics,792,f,f,simultaneous,f,TRUE,方形,img/C_ambi40.png,circle,square,1,exp1,mismatch
1,0,2000,5,434.97,psychophysics,756,f,f,simultaneous,f,TRUE,圆形,img/T_ambi40.png,triangle,circle,1,exp1,mismatch
1,0,2000,5,434.97,psychophysics,676,f,f,simultaneous,f,TRUE,方形,img/T_ambi40.png,triangle,square,1,exp1,mismatch
1,0,2000,5,434.97,psychophysics,804,j,j,simultaneous,j,TRUE,三角,img/T_ambi40.png,triangle,triangle,1,exp1,match
1,0,2000,5,434.97,psychophysics,776,f,f,simultaneous,f,TRUE,方形,img/C_ambi40.png,circle,square,1,exp1,mismatch
1,0,2000,5,434.97,psychophysics,709,j,j,simultaneous,j,TRUE,方形,img/S_ambi40.png,square,square,1,exp1,match
1,0,2000,5,434.97,psychophysics,655,j,j,simultaneous,j,TRUE,方形,img/S_ambi40.png,square,square,1,exp1,match
1,0,2000,5,434.97,psychophysics,663,f,f,simultaneous,f,TRUE,方形,img/T_ambi40.png,triangle,square,1,exp1,mismatch
1,0,2000,5,434.97,psychophysics,608,j,j,simultaneous,j,TRUE,圆形,img/C_ambi40.png,circle,circle,1,exp1,match
1,0,2000,5,434.97,psychophysics,836,f,f,simultaneous,f,TRUE,圆形,img/T_ambi40.png,triangle,circle,1,exp1,mismatch
1,0,2000,5,434.97,psychophysics,712,f,f,simultaneous,f,TRUE,三角,img/S_ambi40.png,square,triangle,1,exp1,mismatch
1,0,2000,5,434.97,psychophysics,770,f,f,simultaneous,f,TRUE,三角,img/C_ambi40.png,circle,triangle,1,exp1,mismatch
1,0,2000,5,434.97,psychophysics,767,f,f,simultaneous,f,TRUE,圆形,img/S_ambi40.png,square,circle,1,exp1,mismatch
1,0,2000,5,434.97,psychophysics,685,j,j,simultaneous,j,TRUE,三角,img/T_ambi40.png,triangle,triangle,1,exp1,match
1,0,2000,5,434.97,psychophysics,635,j,j,simultaneous,j,TRUE,圆形,img/C_ambi40.png,circle,circle,1,exp1,match
1,0,2000,5,434.97,psychophysics,557,j,j,simultaneous,j,TRUE,三角,img/T_ambi40.png,triangle,triangle,1,exp1,match
1,0,2000,5,434.97,psychophysics,603,f,f,simultaneous,f,TRUE,三角,img/S_ambi40.png,square,triangle,1,exp1,mismatch
1,0,2000,5,434.97,psychophysics,693,f,f,simultaneous,f,TRUE,方形,img/C_ambi40.png,circle,square,1,exp1,mismatch
1,0,2000,5,434.97,psychophysics,623,f,f,simultaneous,f,TRUE,圆形,img/T_ambi40.png,triangle,circle,1,exp1,mismatch
1,0,2000,5,434.97,psychophysics,731,f,f,simultaneous,f,TRUE,三角,img/C_ambi40.png,circle,triangle,1,exp1,mismatch
1,0,2000,5,434.97,psychophysics,649,j,j,simultaneous,j,TRUE,圆形,img/C_ambi40.png,circle,circle,1,exp1,match
1,0,2000,5,434.97,psychophysics,614,j,j,simultaneous,j,TRUE,方形,img/S_ambi40.png,square,square,1,exp1,match
1,0,2000,5,434.97,psychophysics,607,j,j,simultaneous,j,TRUE,方形,img/S_ambi40.png,square,square,1,exp1,match
1,0,2000,5,434.97,psychophysics,613,j,j,simultaneous,j,TRUE,圆形,img/C_ambi40.png,circle,circle,1,exp1,match
1,0,2000,5,434.97,psychophysics,623,j,j,simultaneous,j,TRUE,三角,img/T_ambi40.png,triangle,triangle,1,exp1,match
1,0,2000,5,434.97,psychophysics,749,f,f,simultaneous,f,TRUE,方形,img/T_ambi40.png,triangle,square,1,exp1,mismatch
1,0,2000,5,434.97,psychophysics,809,f,f,simultaneous,f,TRUE,圆形,img/S_ambi40.png,square,circle,1,exp1,mismatch
1,0,2000,5,434.97,psychophysics,709,j,j,simultaneous,j,TRUE,方形,img/S_ambi40.png,square,square,1,exp1,match
1,0,2000,5,434.97,psychophysics,672,j,j,simultaneous,j,TRUE,圆形,img/C_ambi40.png,circle,circle,1,exp1,match
1,0,2000,5,434.97,psychophysics,652,j,j,simultaneous,j,TRUE,三角,img/T_ambi40.png,triangle,triangle,1,exp1,match
1,0,2000,5,434.97,psychophysics,587,j,j,simultaneous,j,TRUE,三角,img/T_ambi40.png,triangle,triangle,1,exp1,match
1,0,2000,5,434.97,psychophysics,620,f,f,simultaneous,f,TRUE,圆形,img/T_ambi40.png,triangle,circle,1,exp1,mismatch
1,0,2000,5,434.97,psychophysics,702,f,f,simultaneous,f,TRUE,三角,img/C_ambi40.png,circle,triangle,1,exp1,mismatch
1,0,2000,5,434.97,psychophysics,708,f,f,simultaneous,f,TRUE,圆形,img/S_ambi40.png,square,circle,1,exp1,mismatch
1,0,2000,5,434.97,psychophysics,782,f,f,simultaneous,f,TRUE,方形,img/T_ambi40.png,triangle,square,1,exp1,mismatch
1,0,2000,5,434.97,psychophysics,675,j,j,simultaneous,j,TRUE,圆形,img/C_ambi40.png,circle,circle,1,exp1,match
1,0,2000,5,434.97,psychophysics,839,j,j,simultaneous,j,TRUE,方形,img/S_ambi40.png,square,square,1,exp1,match
1,0,2000,5,434.97,psychophysics,682,f,f,simultaneous,f,TRUE,三角,img/S_ambi40.png,square,triangle,1,exp1,mismatch
1,0,2000,5,434.97,psychophysics,791,f,f,simultaneous,f,TRUE,方形,img/C_ambi40.png,circle,square,1,exp1,mismatch
1,0,2000,5,434.97,psychophysics,732,f,f,simultaneous,f,TRUE,圆形,img/S_ambi40.png,square,circle,1,exp1,mismatch
1,0,2000,5,434.97,psychophysics,724,f,f,simultaneous,f,TRUE,三角,img/S_ambi40.png,square,triangle,1,exp1,mismatch
1,0,2000,5,434.97,psychophysics,690,f,f,simultaneous,f,TRUE,三角,img/C_ambi40.png,circle,triangle,1,exp1,mismatch
1,0,2000,5,434.97,psychophysics,867,f,f,simultaneous,f,TRUE,方形,img/T_ambi40.png,triangle,square,1,exp1,mismatch
1,0,2000,5,434.97,psychophysics,614,j,j,simultaneous,j,TRUE,方形,img/S_ambi40.png,square,square,1,exp1,match
1,0,2000,5,434.97,psychophysics,629,j,j,simultaneous,j,TRUE,三角,img/T_ambi40.png,triangle,triangle,1,exp1,match
1,0,2000,5,434.97,psychophysics,752,f,f,simultaneous,j,FALSE,三角,img/T_ambi40.png,triangle,triangle,0,exp1,match
1,0,2000,5,434.97,psychophysics,659,j,j,simultaneous,j,TRUE,圆形,img/C_ambi40.png,circle,circle,1,exp1,match
1,0,2000,5,434.97,psychophysics,747,f,f,simultaneous,f,TRUE,方形,img/C_ambi40.png,circle,square,1,exp1,mismatch
1,0,2000,5,434.97,psychophysics,780,f,f,simultaneous,f,TRUE,圆形,img/T_ambi40.png,triangle,circle,1,exp1,mismatch
1,0,2000,5,434.97,psychophysics,653,j,j,simultaneous,j,TRUE,方形,img/S_ambi40.png,square,square,1,exp1,match
1,0,2000,5,434.97,psychophysics,669,j,j,simultaneous,j,TRUE,圆形,img/C_ambi40.png,circle,circle,1,exp1,match
1,0,2000,5,434.97,psychophysics,793,f,f,simultaneous,f,TRUE,圆形,img/T_ambi40.png,triangle,circle,1,exp1,mismatch
1,0,2000,5,434.97,psychophysics,624,j,j,simultaneous,j,TRUE,圆形,img/C_ambi40.png,circle,circle,1,exp1,match
1,0,2000,5,434.97,psychophysics,729,f,f,simultaneous,f,TRUE,三角,img/C_ambi40.png,circle,triangle,1,exp1,mismatch
1,0,2000,5,434.97,psychophysics,791,f,f,simultaneous,f,TRUE,三角,img/S_ambi40.png,square,triangle,1,exp1,mismatch
1,0,2000,5,434.97,psychophysics,657,j,j,simultaneous,j,TRUE,方形,img/S_ambi40.png,square,square,1,exp1,match
1,0,2000,5,434.97,psychophysics,831,f,f,simultaneous,f,TRUE,方形,img/T_ambi40.png,triangle,square,1,exp1,mismatch
1,0,2000,5,434.97,psychophysics,677,j,j,simultaneous,j,TRUE,三角,img/T_ambi40.png,triangle,triangle,1,exp1,match
1,0,2000,5,434.97,psychophysics,715,f,f,simultaneous,f,TRUE,圆形,img/S_ambi40.png,square,circle,1,exp1,mismatch
1,0,2000,5,434.97,psychophysics,829,f,f,simultaneous,f,TRUE,方形,img/C_ambi40.png,circle,square,1,exp1,mismatch
1,0,2000,5,434.97,psychophysics,615,j,j,simultaneous,j,TRUE,圆形,img/C_ambi40.png,circle,circle,1,exp1,match
1,0,2000,5,434.97,psychophysics,583,j,j,simultaneous,j,TRUE,方形,img/S_ambi40.png,square,square,1,exp1,match
1,0,2000,5,434.97,psychophysics,600,j,j,simultaneous,j,TRUE,三角,img/T_ambi40.png,triangle,triangle,1,exp1,match
1,0,2000,5,434.97,psychophysics,651,f,f,simultaneous,f,TRUE,方形,img/T_ambi40.png,triangle,square,1,exp1,mismatch
1,0,2000,5,434.97,psychophysics,846,f,f,simultaneous,f,TRUE,圆形,img/S_ambi40.png,square,circle,1,exp1,mismatch
1,0,2000,5,434.97,psychophysics,696,f,f,simultaneous,f,TRUE,圆形,img/T_ambi40.png,triangle,circle,1,exp1,mismatch
1,0,2000,5,434.97,psychophysics,768,f,f,simultaneous,f,TRUE,三角,img/S_ambi40.png,square,triangle,1,exp1,mismatch
1,0,2000,5,434.97,psychophysics,920,f,f,simultaneous,f,TRUE,方形,img/C_ambi40.png,circle,square,1,exp1,mismatch
1,0,2000,5,434.97,psychophysics,636,j,j,simultaneous,j,TRUE,三角,img/T_ambi40.png,triangle,triangle,1,exp1,match
1,0,2000,5,434.97,psychophysics,652,j,j,simultaneous,j,TRUE,圆形,img/C_ambi40.png,circle,circle,1,exp1,match
1,0,2000,5,434.97,psychophysics,577,j,j,simultaneous,j,TRUE,方形,img/S_ambi40.png,square,square,1,exp1,match
1,0,2000,5,434.97,psychophysics,606,j,j,simultaneous,j,TRUE,方形,img/S_ambi40.png,square,square,1,exp1,match
1,0,2000,5,434.97,psychophysics,591,f,f,simultaneous,f,TRUE,三角,img/C_ambi40.png,circle,triangle,1,exp1,mismatch
1,0,2000,5,434.97,psychophysics,611,j,j,simultaneous,j,TRUE,三角,img/T_ambi40.png,triangle,triangle,1,exp1,match
1,0,2000,5,434.97,psychophysics,687,j,j,simultaneous,j,TRUE,圆形,img/C_ambi40.png,circle,circle,1,exp1,match
1,0,2000,5,434.97,psychophysics,738,j,j,simultaneous,j,TRUE,三角,img/T_ambi40.png,triangle,triangle,1,exp1,match
1,0,2000,5,434.97,psychophysics,572,j,j,simultaneous,j,TRUE,圆形,img/C_ambi40.png,circle,circle,1,exp1,match
1,0,2000,5,434.97,psychophysics,511,j,j,simultaneous,j,TRUE,圆形,img/C_ambi40.png,circle,circle,1,exp1,match
1,0,2000,5,434.97,psychophysics,738,f,f,simultaneous,f,TRUE,三角,img/S_ambi40.png,square,triangle,1,exp1,mismatch
1,0,2000,5,434.97,psychophysics,692,f,f,simultaneous,f,TRUE,三角,img/C_ambi40.png,circle,triangle,1,exp1,mismatch
1,0,2000,5,434.97,psychophysics,848,f,f,simultaneous,f,TRUE,方形,img/C_ambi40.png,circle,square,1,exp1,mismatch
1,0,2000,5,434.97,psychophysics,771,f,f,simultaneous,f,TRUE,圆形,img/T_ambi40.png,triangle,circle,1,exp1,mismatch
1,0,2000,5,434.97,psychophysics,607,j,j,simultaneous,j,TRUE,三角,img/T_ambi40.png,triangle,triangle,1,exp1,match
1,0,2000,5,434.97,psychophysics,607,j,j,simultaneous,j,TRUE,方形,img/S_ambi40.png,square,square,1,exp1,match
1,0,2000,5,434.97,psychophysics,621,j,j,simultaneous,j,TRUE,方形,img/S_ambi40.png,square,square,1,exp1,match
1,0,2000,5,434.97,psychophysics,733,f,f,simultaneous,f,TRUE,圆形,img/S_ambi40.png,square,circle,1,exp1,mismatch
1,0,2000,5,434.97,psychophysics,946,f,f,simultaneous,f,TRUE,方形,img/T_ambi40.png,triangle,square,1,exp1,mismatch
1,0,2000,5,434.97,psychophysics,695,j,j,simultaneous,j,TRUE,圆形,img/C_ambi40.png,circle,circle,1,exp1,match
1,0,2000,5,434.97,psychophysics,651,j,j,simultaneous,j,TRUE,方形,img/S_ambi40.png,square,square,1,exp1,match
1,0,2000,5,434.97,psychophysics,684,f,f,simultaneous,f,TRUE,三角,img/S_ambi40.png,square,triangle,1,exp1,mismatch
1,0,2000,5,434.97,psychophysics,645,j,j,simultaneous,j,TRUE,三角,img/T_ambi40.png,triangle,triangle,1,exp1,match
1,0,2000,5,434.97,psychophysics,655,f,f,simultaneous,f,TRUE,方形,img/C_ambi40.png,circle,square,1,exp1,mismatch
1,0,2000,5,434.97,psychophysics,648,f,f,simultaneous,f,TRUE,方形,img/T_ambi40.png,triangle,square,1,exp1,mismatch
1,0,2000,5,434.97,psychophysics,600,j,j,simultaneous,j,TRUE,三角,img/T_ambi40.png,triangle,triangle,1,exp1,match
1,0,2000,5,434.97,psychophysics,604,j,j,simultaneous,j,TRUE,圆形,img/C_ambi40.png,circle,circle,1,exp1,match
1,0,2000,5,434.97,psychophysics,676,f,f,simultaneous,f,TRUE,圆形,img/T_ambi40.png,triangle,circle,1,exp1,mismatch
1,0,2000,5,434.97,psychophysics,711,f,f,simultaneous,f,TRUE,圆形,img/S_ambi40.png,square,circle,1,exp1,mismatch
1,0,2000,5,434.97,psychophysics,709,f,f,simultaneous,f,TRUE,三角,img/C_ambi40.png,circle,triangle,1,exp1,mismatch
1,0,2000,5,434.97,psychophysics,683,j,j,simultaneous,j,TRUE,方形,img/S_ambi40.png,square,square,1,exp1,match
1,0,2000,5,434.97,psychophysics,677,f,f,simultaneous,f,TRUE,圆形,img/T_ambi40.png,triangle,circle,1,exp1,mismatch
1,0,2000,5,434.97,psychophysics,730,f,f,simultaneous,f,TRUE,圆形,img/S_ambi40.png,square,circle,1,exp1,mismatch
1,0,2000,5,434.97,psychophysics,630,j,j,simultaneous,j,TRUE,方形,img/S_ambi40.png,square,square,1,exp1,match
1,0,2000,5,434.97,psychophysics,631,j,j,simultaneous,j,TRUE,圆形,img/C_ambi40.png,circle,circle,1,exp1,match
1,0,2000,5,434.97,psychophysics,629,f,f,simultaneous,f,TRUE,三角,img/S_ambi40.png,square,triangle,1,exp1,mismatch
1,0,2000,5,434.97,psychophysics,598,j,j,simultaneous,j,TRUE,方形,img/S_ambi40.png,square,square,1,exp1,match
1,0,2000,5,434.97,psychophysics,702,j,j,simultaneous,j,TRUE,三角,img/T_ambi40.png,triangle,triangle,1,exp1,match
1,0,2000,5,434.97,psychophysics,608,j,j,simultaneous,j,TRUE,圆形,img/C_ambi40.png,circle,circle,1,exp1,match
1,0,2000,5,434.97,psychophysics,612,j,j,simultaneous,j,TRUE,三角,img/T_ambi40.png,triangle,triangle,1,exp1,match
1,0,2000,5,434.97,psychophysics,702,f,f,simultaneous,f,TRUE,方形,img/T_ambi40.png,triangle,square,1,exp1,mismatch
1,0,2000,5,434.97,psychophysics,756,f,f,simultaneous,f,TRUE,方形,img/C_ambi40.png,circle,square,1,exp1,mismatch
1,0,2000,5,434.97,psychophysics,758,f,f,simultaneous,f,TRUE,三角,img/C_ambi40.png,circle,triangle,1,exp1,mismatch
1,0,2000,5,434.97,psychophysics,781,f,f,simultaneous,f,TRUE,三角,img/S_ambi40.png,square,triangle,1,exp1,mismatch
1,0,2000,5,434.97,psychophysics,668,j,j,simultaneous,j,TRUE,三角,img/T_ambi40.png,triangle,triangle,1,exp1,match
1,0,2000,5,434.97,psychophysics,655,j,j,simultaneous,j,TRUE,圆形,img/C_ambi40.png,circle,circle,1,exp1,match
1,0,2000,5,434.97,psychophysics,645,j,j,simultaneous,j,TRUE,方形,img/S_ambi40.png,square,square,1,exp1,match
1,0,2000,5,434.97,psychophysics,623,f,f,simultaneous,j,FALSE,圆形,img/C_ambi40.png,circle,circle,0,exp1,match
1,0,2000,5,434.97,psychophysics,601,j,j,simultaneous,j,TRUE,方形,img/S_ambi40.png,square,square,1,exp1,match
1,0,2000,5,434.97,psychophysics,763,f,f,simultaneous,f,TRUE,方形,img/T_ambi40.png,triangle,square,1,exp1,mismatch
1,0,2000,5,434.97,psychophysics,660,j,j,simultaneous,f,FALSE,方形,img/C_ambi40.png,circle,square,0,exp1,mismatch
1,0,2000,5,434.97,psychophysics,772,f,f,simultaneous,f,TRUE,三角,img/C_ambi40.png,circle,triangle,1,exp1,mismatch
1,0,2000,5,434.97,psychophysics,1121,f,f,simultaneous,f,TRUE,圆形,img/S_ambi40.png,square,circle,1,exp1,mismatch
1,0,2000,5,434.97,psychophysics,847,f,f,simultaneous,f,TRUE,圆形,img/T_ambi40.png,triangle,circle,1,exp1,mismatch
1,0,2000,5,434.97,psychophysics,650,j,j,simultaneous,j,TRUE,三角,img/T_ambi40.png,triangle,triangle,1,exp1,match
1,0,2000,5,434.97,psychophysics,656,j,j,simultaneous,j,TRUE,三角,img/T_ambi40.png,triangle,triangle,1,exp1,match
1,0,2000,5,434.97,psychophysics,694,f,f,simultaneous,f,TRUE,三角,img/S_ambi40.png,square,triangle,1,exp1,mismatch
1,0,2000,5,434.97,psychophysics,807,f,f,simultaneous,f,TRUE,三角,img/C_ambi40.png,circle,triangle,1,exp1,mismatch
1,0,2000,5,434.97,psychophysics,739,j,j,simultaneous,f,FALSE,圆形,img/S_ambi40.png,square,circle,0,exp1,mismatch
1,0,2000,5,434.97,psychophysics,794,f,f,simultaneous,f,TRUE,圆形,img/T_ambi40.png,triangle,circle,1,exp1,mismatch
1,0,2000,5,434.97,psychophysics,661,j,j,simultaneous,j,TRUE,方形,img/S_ambi40.png,square,square,1,exp1,match
1,0,2000,5,434.97,psychophysics,826,j,j,simultaneous,j,TRUE,圆形,img/C_ambi40.png,circle,circle,1,exp1,match
1,0,2000,5,434.97,psychophysics,620,j,j,simultaneous,j,TRUE,三角,img/T_ambi40.png,triangle,triangle,1,exp1,match
1,0,2000,5,434.97,psychophysics,749,j,j,simultaneous,j,TRUE,方形,img/S_ambi40.png,square,square,1,exp1,match
1,0,2000,5,434.97,psychophysics,635,j,j,simultaneous,j,TRUE,圆形,img/C_ambi40.png,circle,circle,1,exp1,match
1,0,2000,5,434.97,psychophysics,709,f,f,simultaneous,f,TRUE,方形,img/T_ambi40.png,triangle,square,1,exp1,mismatch
1,0,2000,5,434.97,psychophysics,884,f,f,simultaneous,f,TRUE,方形,img/C_ambi40.png,circle,square,1,exp1,mismatch
1,0,2000,5,434.97,psychophysics,701,f,f,simultaneous,f,TRUE,三角,img/C_ambi40.png,circle,triangle,1,exp1,mismatch
1,0,2000,5,434.97,psychophysics,645,j,j,simultaneous,j,TRUE,三角,img/T_ambi40.png,triangle,triangle,1,exp1,match
1,0,2000,5,434.97,psychophysics,680,j,j,simultaneous,j,TRUE,方形,img/S_ambi40.png,square,square,1,exp1,match
1,0,2000,5,434.97,psychophysics,636,j,j,simultaneous,j,TRUE,圆形,img/C_ambi40.png,circle,circle,1,exp1,match
1,0,2000,5,434.97,psychophysics,698,f,f,simultaneous,f,TRUE,方形,img/T_ambi40.png,triangle,square,1,exp1,mismatch
1,0,2000,5,434.97,psychophysics,710,f,f,simultaneous,f,TRUE,三角,img/S_ambi40.png,square,triangle,1,exp1,mismatch
1,0,2000,5,434.97,psychophysics,609,j,j,simultaneous,j,TRUE,圆形,img/C_ambi40.png,circle,circle,1,exp1,match
1,0,2000,5,434.97,psychophysics,572,j,j,simultaneous,j,TRUE,方形,img/S_ambi40.png,square,square,1,exp1,match
1,0,2000,5,434.97,psychophysics,666,f,f,simultaneous,f,TRUE,圆形,img/S_ambi40.png,square,circle,1,exp1,mismatch
1,0,2000,5,434.97,psychophysics,759,f,f,simultaneous,f,TRUE,圆形,img/T_ambi40.png,triangle,circle,1,exp1,mismatch
1,0,2000,5,434.97,psychophysics,813,f,f,simultaneous,f,TRUE,方形,img/C_ambi40.png,circle,square,1,exp1,mismatch
1,0,2000,5,434.97,psychophysics,677,j,j,simultaneous,j,TRUE,三角,img/T_ambi40.png,triangle,triangle,1,exp1,match
10,1,2000,5,634.76,psychophysics,null,null,null,word_first,j,FALSE,圆形,img/S_ambi40.png,square,circle,0,exp1,mismatch
10,1,2000,5,634.76,psychophysics,null,null,null,word_first,j,FALSE,三角,img/S_ambi40.png,square,triangle,0,exp1,mismatch
10,1,2000,5,634.76,psychophysics,856,f,f,word_first,f,TRUE,方形,img/S_ambi40.png,square,square,1,exp1,match
10,1,2000,5,634.76,psychophysics,742,j,j,word_first,j,TRUE,三角,img/C_ambi40.png,circle,triangle,1,exp1,mismatch
10,1,2000,5,634.76,psychophysics,719,j,j,word_first,j,TRUE,圆形,img/T_ambi40.png,triangle,circle,1,exp1,mismatch
10,1,2000,5,634.76,psychophysics,923,f,f,word_first,f,TRUE,圆形,img/C_ambi40.png,circle,circle,1,exp1,match
10,1,2000,5,634.76,psychophysics,728,f,f,word_first,f,TRUE,三角,img/T_ambi40.png,triangle,triangle,1,exp1,match
10,1,2000,5,634.76,psychophysics,836,f,f,word_first,f,TRUE,方形,img/S_ambi40.png,square,square,1,exp1,match
10,1,2000,5,634.76,psychophysics,548,f,f,word_first,f,TRUE,三角,img/T_ambi40.png,triangle,triangle,1,exp1,match
10,1,2000,5,634.76,psychophysics,539,f,f,word_first,f,TRUE,圆形,img/C_ambi40.png,circle,circle,1,exp1,match
10,1,2000,5,634.76,psychophysics,655,j,j,word_first,j,TRUE,方形,img/C_ambi40.png,circle,square,1,exp1,mismatch
10,1,2000,5,634.76,psychophysics,1023,j,j,word_first,j,TRUE,方形,img/T_ambi40.png,triangle,square,1,exp1,mismatch
10,1,2000,5,634.76,psychophysics,736,j,j,word_first,j,TRUE,圆形,img/S_ambi40.png,square,circle,1,exp1,mismatch
10,1,2000,5,634.76,psychophysics,700,j,j,word_first,j,TRUE,三角,img/C_ambi40.png,circle,triangle,1,exp1,mismatch
10,1,2000,5,634.76,psychophysics,606,j,j,word_first,j,TRUE,方形,img/T_ambi40.png,triangle,square,1,exp1,mismatch
10,1,2000,5,634.76,psychophysics,711,f,f,word_first,f,TRUE,圆形,img/C_ambi40.png,circle,circle,1,exp1,match
10,1,2000,5,634.76,psychophysics,658,j,j,word_first,f,FALSE,方形,img/S_ambi40.png,square,square,0,exp1,match
10,1,2000,5,634.76,psychophysics,1199,j,j,word_first,f,FALSE,方形,img/S_ambi40.png,square,square,0,exp1,match
10,1,2000,5,634.76,psychophysics,990,j,j,word_first,j,TRUE,方形,img/C_ambi40.png,circle,square,1,exp1,mismatch
10,1,2000,5,634.76,psychophysics,726,j,j,word_first,j,TRUE,三角,img/S_ambi40.png,square,triangle,1,exp1,mismatch
10,1,2000,5,634.76,psychophysics,747,f,f,word_first,f,TRUE,三角,img/T_ambi40.png,triangle,triangle,1,exp1,match
10,1,2000,5,634.76,psychophysics,749,f,f,word_first,f,TRUE,圆形,img/C_ambi40.png,circle,circle,1,exp1,match
10,1,2000,5,634.76,psychophysics,1182,j,j,word_first,j,TRUE,圆形,img/T_ambi40.png,triangle,circle,1,exp1,mismatch
10,1,2000,5,634.76,psychophysics,796,f,f,word_first,f,TRUE,三角,img/T_ambi40.png,triangle,triangle,1,exp1,match
10,1,2000,5,634.76,psychophysics,988,j,j,word_first,j,TRUE,圆形,img/T_ambi40.png,triangle,circle,1,exp1,mismatch
10,1,2000,5,634.76,psychophysics,805,j,j,word_first,j,TRUE,圆形,img/S_ambi40.png,square,circle,1,exp1,mismatch
10,1,2000,5,634.76,psychophysics,800,f,f,word_first,f,TRUE,方形,img/S_ambi40.png,square,square,1,exp1,match
10,1,2000,5,634.76,psychophysics,921,j,j,word_first,j,TRUE,三角,img/C_ambi40.png,circle,triangle,1,exp1,mismatch
10,1,2000,5,634.76,psychophysics,991,f,f,word_first,f,TRUE,三角,img/T_ambi40.png,triangle,triangle,1,exp1,match
10,1,2000,5,634.76,psychophysics,724,j,j,word_first,j,TRUE,方形,img/C_ambi40.png,circle,square,1,exp1,mismatch
10,1,2000,5,634.76,psychophysics,921,f,f,word_first,f,TRUE,圆形,img/C_ambi40.png,circle,circle,1,exp1,match
10,1,2000,5,634.76,psychophysics,1078,j,j,word_first,f,FALSE,方形,img/S_ambi40.png,square,square,0,exp1,match
10,1,2000,5,634.76,psychophysics,1114,f,f,word_first,f,TRUE,三角,img/T_ambi40.png,triangle,triangle,1,exp1,match
10,1,2000,5,634.76,psychophysics,619,f,f,word_first,f,TRUE,圆形,img/C_ambi40.png,circle,circle,1,exp1,match
10,1,2000,5,634.76,psychophysics,775,j,j,word_first,j,TRUE,三角,img/S_ambi40.png,square,triangle,1,exp1,mismatch
10,1,2000,5,634.76,psychophysics,928,j,j,word_first,j,TRUE,方形,img/T_ambi40.png,triangle,square,1,exp1,mismatch
10,1,2000,5,634.76,psychophysics,723,f,f,word_first,f,TRUE,三角,img/T_ambi40.png,triangle,triangle,1,exp1,match
10,1,2000,5,634.76,psychophysics,748,j,j,word_first,j,TRUE,圆形,img/T_ambi40.png,triangle,circle,1,exp1,mismatch
10,1,2000,5,634.76,psychophysics,767,j,j,word_first,j,TRUE,圆形,img/S_ambi40.png,square,circle,1,exp1,mismatch
10,1,2000,5,634.76,psychophysics,616,f,f,word_first,f,TRUE,三角,img/T_ambi40.png,triangle,triangle,1,exp1,match
10,1,2000,5,634.76,psychophysics,698,j,j,word_first,j,TRUE,方形,img/C_ambi40.png,circle,square,1,exp1,mismatch
10,1,2000,5,634.76,psychophysics,552,f,f,word_first,f,TRUE,圆形,img/C_ambi40.png,circle,circle,1,exp1,match
10,1,2000,5,634.76,psychophysics,769,f,f,word_first,f,TRUE,方形,img/S_ambi40.png,square,square,1,exp1,match
10,1,2000,5,634.76,psychophysics,602,j,j,word_first,j,TRUE,三角,img/S_ambi40.png,square,triangle,1,exp1,mismatch
10,1,2000,5,634.76,psychophysics,642,f,f,word_first,f,TRUE,圆形,img/C_ambi40.png,circle,circle,1,exp1,match
10,1,2000,5,634.76,psychophysics,696,j,j,word_first,f,FALSE,方形,img/S_ambi40.png,square,square,0,exp1,match
10,1,2000,5,634.76,psychophysics,686,j,j,word_first,j,TRUE,三角,img/C_ambi40.png,circle,triangle,1,exp1,mismatch
10,1,2000,5,634.76,psychophysics,692,j,j,word_first,j,TRUE,方形,img/T_ambi40.png,triangle,square,1,exp1,mismatch
10,1,2000,5,634.76,psychophysics,598,f,f,word_first,f,TRUE,三角,img/T_ambi40.png,triangle,triangle,1,exp1,match
10,1,2000,5,634.76,psychophysics,677,j,j,word_first,j,TRUE,圆形,img/T_ambi40.png,triangle,circle,1,exp1,mismatch
10,1,2000,5,634.76,psychophysics,null,null,null,word_first,j,FALSE,圆形,img/S_ambi40.png,square,circle,0,exp1,mismatch
10,1,2000,5,634.76,psychophysics,747,f,f,word_first,f,TRUE,圆形,img/C_ambi40.png,circle,circle,1,exp1,match
10,1,2000,5,634.76,psychophysics,595,f,f,word_first,f,TRUE,三角,img/T_ambi40.png,triangle,triangle,1,exp1,match
10,1,2000,5,634.76,psychophysics,603,j,j,word_first,j,TRUE,方形,img/C_ambi40.png,circle,square,1,exp1,mismatch
10,1,2000,5,634.76,psychophysics,812,j,j,word_first,j,TRUE,方形,img/T_ambi40.png,triangle,square,1,exp1,mismatch
10,1,2000,5,634.76,psychophysics,581,f,f,word_first,f,TRUE,圆形,img/C_ambi40.png,circle,circle,1,exp1,match
10,1,2000,5,634.76,psychophysics,941,f,f,word_first,f,TRUE,方形,img/S_ambi40.png,square,square,1,exp1,match
10,1,2000,5,634.76,psychophysics,522,f,f,word_first,f,TRUE,方形,img/S_ambi40.png,square,square,1,exp1,match
10,1,2000,5,634.76,psychophysics,726,j,j,word_first,j,TRUE,三角,img/S_ambi40.png,square,triangle,1,exp1,mismatch
10,1,2000,5,634.76,psychophysics,653,j,j,word_first,j,TRUE,三角,img/C_ambi40.png,circle,triangle,1,exp1,mismatch
10,1,2000,5,634.76,psychophysics,null,null,null,word_first,f,FALSE,圆形,img/C_ambi40.png,circle,circle,0,exp1,match
10,1,2000,5,634.76,psychophysics,794,f,f,word_first,f,TRUE,三角,img/T_ambi40.png,triangle,triangle,1,exp1,match
10,1,2000,5,634.76,psychophysics,843,f,f,word_first,f,TRUE,方形,img/S_ambi40.png,square,square,1,exp1,match
10,1,2000,5,634.76,psychophysics,580,f,f,word_first,f,TRUE,三角,img/T_ambi40.png,triangle,triangle,1,exp1,match
10,1,2000,5,634.76,psychophysics,649,j,j,word_first,j,TRUE,三角,img/C_ambi40.png,circle,triangle,1,exp1,mismatch
10,1,2000,5,634.76,psychophysics,665,j,j,word_first,j,TRUE,方形,img/C_ambi40.png,circle,square,1,exp1,mismatch
10,1,2000,5,634.76,psychophysics,635,f,f,word_first,f,TRUE,圆形,img/C_ambi40.png,circle,circle,1,exp1,match
10,1,2000,5,634.76,psychophysics,580,j,j,word_first,j,TRUE,方形,img/T_ambi40.png,triangle,square,1,exp1,mismatch
10,1,2000,5,634.76,psychophysics,631,j,j,word_first,j,TRUE,三角,img/S_ambi40.png,square,triangle,1,exp1,mismatch
10,1,2000,5,634.76,psychophysics,739,f,f,word_first,f,TRUE,方形,img/S_ambi40.png,square,square,1,exp1,match
10,1,2000,5,634.76,psychophysics,661,j,j,word_first,j,TRUE,圆形,img/T_ambi40.png,triangle,circle,1,exp1,mismatch
10,1,2000,5,634.76,psychophysics,558,j,j,word_first,j,TRUE,圆形,img/S_ambi40.png,square,circle,1,exp1,mismatch
10,1,2000,5,634.76,psychophysics,616,j,j,word_first,j,TRUE,圆形,img/S_ambi40.png,square,circle,1,exp1,mismatch
10,1,2000,5,634.76,psychophysics,688,j,j,word_first,j,TRUE,方形,img/T_ambi40.png,triangle,square,1,exp1,mismatch
10,1,2000,5,634.76,psychophysics,653,j,j,word_first,j,TRUE,圆形,img/T_ambi40.png,triangle,circle,1,exp1,mismatch
10,1,2000,5,634.76,psychophysics,877,j,j,word_first,j,TRUE,方形,img/C_ambi40.png,circle,square,1,exp1,mismatch
10,1,2000,5,634.76,psychophysics,570,f,f,word_first,f,TRUE,三角,img/T_ambi40.png,triangle,triangle,1,exp1,match
10,1,2000,5,634.76,psychophysics,522,j,j,word_first,j,TRUE,三角,img/C_ambi40.png,circle,triangle,1,exp1,mismatch
10,1,2000,5,634.76,psychophysics,602,j,j,word_first,f,FALSE,方形,img/S_ambi40.png,square,square,0,exp1,match
10,1,2000,5,634.76,psychophysics,711,j,j,word_first,j,TRUE,三角,img/S_ambi40.png,square,triangle,1,exp1,mismatch
10,1,2000,5,634.76,psychophysics,641,f,f,word_first,f,TRUE,圆形,img/C_ambi40.png,circle,circle,1,exp1,match
10,1,2000,5,634.76,psychophysics,515,f,f,word_first,f,TRUE,三角,img/T_ambi40.png,triangle,triangle,1,exp1,match
10,1,2000,5,634.76,psychophysics,467,f,f,word_first,f,TRUE,方形,img/S_ambi40.png,square,square,1,exp1,match
10,1,2000,5,634.76,psychophysics,688,f,f,word_first,f,TRUE,圆形,img/C_ambi40.png,circle,circle,1,exp1,match
10,1,2000,5,634.76,psychophysics,560,f,f,word_first,f,TRUE,圆形,img/C_ambi40.png,circle,circle,1,exp1,match
10,1,2000,5,634.76,psychophysics,533,f,f,word_first,f,TRUE,方形,img/S_ambi40.png,square,square,1,exp1,match
10,1,2000,5,634.76,psychophysics,512,f,f,word_first,f,TRUE,三角,img/T_ambi40.png,triangle,triangle,1,exp1,match
10,1,2000,5,634.76,psychophysics,671,f,f,word_first,f,TRUE,圆形,img/C_ambi40.png,circle,circle,1,exp1,match
10,1,2000,5,634.76,psychophysics,511,f,f,word_first,f,TRUE,方形,img/S_ambi40.png,square,square,1,exp1,match
10,1,2000,5,634.76,psychophysics,548,j,j,word_first,j,TRUE,方形,img/T_ambi40.png,triangle,square,1,exp1,mismatch
10,1,2000,5,634.76,psychophysics,700,j,j,word_first,j,TRUE,方形,img/C_ambi40.png,circle,square,1,exp1,mismatch
10,1,2000,5,634.76,psychophysics,658,j,j,word_first,j,TRUE,圆形,img/S_ambi40.png,square,circle,1,exp1,mismatch
10,1,2000,5,634.76,psychophysics,766,j,j,word_first,j,TRUE,三角,img/S_ambi40.png,square,triangle,1,exp1,mismatch
10,1,2000,5,634.76,psychophysics,619,j,j,word_first,j,TRUE,圆形,img/T_ambi40.png,triangle,circle,1,exp1,mismatch
10,1,2000,5,634.76,psychophysics,596,j,j,word_first,j,TRUE,三角,img/C_ambi40.png,circle,triangle,1,exp1,mismatch
10,1,2000,5,634.76,psychophysics,716,f,f,word_first,f,TRUE,三角,img/T_ambi40.png,triangle,triangle,1,exp1,match
10,1,2000,5,634.76,psychophysics,492,f,f,word_first,f,TRUE,三角,img/T_ambi40.png,triangle,triangle,1,exp1,match
10,1,2000,5,634.76,psychophysics,450,f,f,word_first,f,TRUE,三角,img/T_ambi40.png,triangle,triangle,1,exp1,match
10,1,2000,5,634.76,psychophysics,580,j,j,word_first,j,TRUE,圆形,img/S_ambi40.png,square,circle,1,exp1,mismatch
10,1,2000,5,634.76,psychophysics,522,j,j,word_first,j,TRUE,圆形,img/T_ambi40.png,triangle,circle,1,exp1,mismatch
10,1,2000,5,634.76,psychophysics,787,j,j,word_first,j,TRUE,方形,img/T_ambi40.png,triangle,square,1,exp1,mismatch
10,1,2000,5,634.76,psychophysics,646,f,f,word_first,f,TRUE,方形,img/S_ambi40.png,square,square,1,exp1,match
10,1,2000,5,634.76,psychophysics,651,j,j,word_first,j,TRUE,三角,img/C_ambi40.png,circle,triangle,1,exp1,mismatch
10,1,2000,5,634.76,psychophysics,654,f,f,word_first,f,TRUE,圆形,img/C_ambi40.png,circle,circle,1,exp1,match
10,1,2000,5,634.76,psychophysics,583,f,f,word_first,f,TRUE,圆形,img/C_ambi40.png,circle,circle,1,exp1,match
10,1,2000,5,634.76,psychophysics,520,j,j,word_first,j,TRUE,三角,img/S_ambi40.png,square,triangle,1,exp1,mismatch
10,1,2000,5,634.76,psychophysics,685,j,j,word_first,j,TRUE,方形,img/C_ambi40.png,circle,square,1,exp1,mismatch
10,1,2000,5,634.76,psychophysics,796,f,f,word_first,f,TRUE,方形,img/S_ambi40.png,square,square,1,exp1,match
10,1,2000,5,634.76,psychophysics,597,j,j,word_first,j,TRUE,方形,img/T_ambi40.png,triangle,square,1,exp1,mismatch
10,1,2000,5,634.76,psychophysics,965,j,j,word_first,j,TRUE,三角,img/S_ambi40.png,square,triangle,1,exp1,mismatch
10,1,2000,5,634.76,psychophysics,651,f,f,word_first,f,TRUE,方形,img/S_ambi40.png,square,square,1,exp1,match
10,1,2000,5,634.76,psychophysics,648,j,j,word_first,j,TRUE,圆形,img/S_ambi40.png,square,circle,1,exp1,mismatch
10,1,2000,5,634.76,psychophysics,456,j,j,word_first,f,FALSE,方形,img/S_ambi40.png,square,square,0,exp1,match
10,1,2000,5,634.76,psychophysics,646,j,j,word_first,j,TRUE,三角,img/C_ambi40.png,circle,triangle,1,exp1,mismatch
10,1,2000,5,634.76,psychophysics,541,f,f,word_first,f,TRUE,圆形,img/C_ambi40.png,circle,circle,1,exp1,match
10,1,2000,5,634.76,psychophysics,647,j,j,word_first,j,TRUE,方形,img/C_ambi40.png,circle,square,1,exp1,mismatch
10,1,2000,5,634.76,psychophysics,520,f,f,word_first,f,TRUE,圆形,img/C_ambi40.png,circle,circle,1,exp1,match
10,1,2000,5,634.76,psychophysics,641,f,f,word_first,f,TRUE,三角,img/T_ambi40.png,triangle,triangle,1,exp1,match
10,1,2000,5,634.76,psychophysics,538,j,j,word_first,j,TRUE,圆形,img/T_ambi40.png,triangle,circle,1,exp1,mismatch
10,1,2000,5,634.76,psychophysics,522,f,f,word_first,f,TRUE,三角,img/T_ambi40.png,triangle,triangle,1,exp1,match
10,1,2000,5,634.76,psychophysics,null,null,null,word_first,f,FALSE,三角,img/T_ambi40.png,triangle,triangle,0,exp1,match
10,1,2000,5,634.76,psychophysics,619,f,f,word_first,f,TRUE,圆形,img/C_ambi40.png,circle,circle,1,exp1,match
10,1,2000,5,634.76,psychophysics,883,j,j,word_first,j,TRUE,方形,img/T_ambi40.png,triangle,square,1,exp1,mismatch
10,1,2000,5,634.76,psychophysics,703,f,f,word_first,f,TRUE,方形,img/S_ambi40.png,square,square,1,exp1,match
10,1,2000,5,634.76,psychophysics,1026,f,f,word_first,f,TRUE,方形,img/S_ambi40.png,square,square,1,exp1,match
10,1,2000,5,634.76,psychophysics,549,j,j,word_first,j,TRUE,三角,img/C_ambi40.png,circle,triangle,1,exp1,mismatch
10,1,2000,5,634.76,psychophysics,818,f,f,word_first,j,FALSE,三角,img/S_ambi40.png,square,triangle,0,exp1,mismatch
10,1,2000,5,634.76,psychophysics,680,j,j,word_first,j,TRUE,圆形,img/T_ambi40.png,triangle,circle,1,exp1,mismatch
10,1,2000,5,634.76,psychophysics,593,f,f,word_first,f,TRUE,三角,img/T_ambi40.png,triangle,triangle,1,exp1,match
10,1,2000,5,634.76,psychophysics,600,j,j,word_first,j,TRUE,方形,img/C_ambi40.png,circle,square,1,exp1,mismatch
10,1,2000,5,634.76,psychophysics,792,f,f,word_first,f,TRUE,圆形,img/C_ambi40.png,circle,circle,1,exp1,match
10,1,2000,5,634.76,psychophysics,602,j,j,word_first,j,TRUE,圆形,img/S_ambi40.png,square,circle,1,exp1,mismatch
10,1,2000,5,634.76,psychophysics,523,f,f,word_first,f,TRUE,三角,img/T_ambi40.png,triangle,triangle,1,exp1,match
10,1,2000,5,634.76,psychophysics,712,j,j,word_first,f,FALSE,圆形,img/C_ambi40.png,circle,circle,0,exp1,match
10,1,2000,5,634.76,psychophysics,710,j,j,word_first,j,TRUE,方形,img/C_ambi40.png,circle,square,1,exp1,mismatch
10,1,2000,5,634.76,psychophysics,1006,f,f,word_first,j,FALSE,方形,img/T_ambi40.png,triangle,square,0,exp1,mismatch
10,1,2000,5,634.76,psychophysics,693,f,f,word_first,f,TRUE,三角,img/T_ambi40.png,triangle,triangle,1,exp1,match
10,1,2000,5,634.76,psychophysics,964,j,j,word_first,j,TRUE,圆形,img/T_ambi40.png,triangle,circle,1,exp1,mismatch
10,1,2000,5,634.76,psychophysics,810,f,f,word_first,f,TRUE,方形,img/S_ambi40.png,square,square,1,exp1,match
10,1,2000,5,634.76,psychophysics,653,j,j,word_first,j,TRUE,圆形,img/S_ambi40.png,square,circle,1,exp1,mismatch
10,1,2000,5,634.76,psychophysics,618,j,j,word_first,j,TRUE,三角,img/C_ambi40.png,circle,triangle,1,exp1,mismatch
10,1,2000,5,634.76,psychophysics,882,f,f,word_first,j,FALSE,三角,img/S_ambi40.png,square,triangle,0,exp1,mismatch
10,1,2000,5,634.76,psychophysics,690,f,f,word_first,f,TRUE,圆形,img/C_ambi40.png,circle,circle,1,exp1,match
10,1,2000,5,634.76,psychophysics,928,f,f,word_first,f,TRUE,方形,img/S_ambi40.png,square,square,1,exp1,match
10,1,2000,5,634.76,psychophysics,699,j,j,word_first,j,TRUE,圆形,img/T_ambi40.png,triangle,circle,1,exp1,mismatch
10,1,2000,5,634.76,psychophysics,733,f,f,word_first,f,TRUE,方形,img/S_ambi40.png,square,square,1,exp1,match
10,1,2000,5,634.76,psychophysics,965,j,j,word_first,j,TRUE,方形,img/C_ambi40.png,circle,square,1,exp1,mismatch
10,1,2000,5,634.76,psychophysics,1055,f,f,word_first,f,TRUE,三角,img/T_ambi40.png,triangle,triangle,1,exp1,match
10,1,2000,5,634.76,psychophysics,1106,j,j,word_first,j,TRUE,圆形,img/S_ambi40.png,square,circle,1,exp1,mismatch
10,1,2000,5,634.76,psychophysics,695,j,j,word_first,j,TRUE,三角,img/C_ambi40.png,circle,triangle,1,exp1,mismatch
10,1,2000,5,634.76,psychophysics,560,f,f,word_first,f,TRUE,三角,img/T_ambi40.png,triangle,triangle,1,exp1,match
10,1,2000,5,634.76,psychophysics,790,f,f,word_first,f,TRUE,圆形,img/C_ambi40.png,circle,circle,1,exp1,match
10,1,2000,5,634.76,psychophysics,604,f,f,word_first,f,TRUE,圆形,img/C_ambi40.png,circle,circle,1,exp1,match
10,1,2000,5,634.76,psychophysics,660,j,j,word_first,j,TRUE,方形,img/T_ambi40.png,triangle,square,1,exp1,mismatch
10,1,2000,5,634.76,psychophysics,887,f,f,word_first,j,FALSE,三角,img/S_ambi40.png,square,triangle,0,exp1,mismatch
10,1,2000,5,634.76,psychophysics,858,f,f,word_first,f,TRUE,方形,img/S_ambi40.png,square,square,1,exp1,match
10,1,2000,5,634.76,psychophysics,584,f,f,word_first,f,TRUE,三角,img/T_ambi40.png,triangle,triangle,1,exp1,match
10,1,2000,5,634.76,psychophysics,726,j,j,word_first,j,TRUE,圆形,img/T_ambi40.png,triangle,circle,1,exp1,mismatch
10,1,2000,5,634.76,psychophysics,1219,j,j,word_first,j,TRUE,三角,img/S_ambi40.png,square,triangle,1,exp1,mismatch
10,1,2000,5,634.76,psychophysics,656,f,f,word_first,f,TRUE,方形,img/S_ambi40.png,square,square,1,exp1,match
10,1,2000,5,634.76,psychophysics,714,j,j,word_first,j,TRUE,三角,img/C_ambi40.png,circle,triangle,1,exp1,mismatch
10,1,2000,5,634.76,psychophysics,724,j,j,word_first,j,TRUE,方形,img/C_ambi40.png,circle,square,1,exp1,mismatch
10,1,2000,5,634.76,psychophysics,662,f,f,word_first,f,TRUE,三角,img/T_ambi40.png,triangle,triangle,1,exp1,match
10,1,2000,5,634.76,psychophysics,615,f,f,word_first,f,TRUE,圆形,img/C_ambi40.png,circle,circle,1,exp1,match
10,1,2000,5,634.76,psychophysics,749,j,j,word_first,j,TRUE,圆形,img/S_ambi40.png,square,circle,1,exp1,mismatch
10,1,2000,5,634.76,psychophysics,696,f,f,word_first,j,FALSE,方形,img/T_ambi40.png,triangle,square,0,exp1,mismatch
10,1,2000,5,634.76,psychophysics,644,f,f,word_first,f,TRUE,方形,img/S_ambi40.png,square,square,1,exp1,match
10,1,2000,5,634.76,psychophysics,667,f,f,word_first,f,TRUE,圆形,img/C_ambi40.png,circle,circle,1,exp1,match
10,1,2000,5,634.76,psychophysics,708,j,j,word_first,j,TRUE,圆形,img/S_ambi40.png,square,circle,1,exp1,mismatch
10,1,2000,5,634.76,psychophysics,766,f,f,word_first,f,TRUE,方形,img/S_ambi40.png,square,square,1,exp1,match
10,1,2000,5,634.76,psychophysics,1040,j,j,word_first,j,TRUE,三角,img/S_ambi40.png,square,triangle,1,exp1,mismatch
10,1,2000,5,634.76,psychophysics,721,f,f,word_first,f,TRUE,三角,img/T_ambi40.png,triangle,triangle,1,exp1,match
10,1,2000,5,634.76,psychophysics,611,f,f,word_first,f,TRUE,方形,img/S_ambi40.png,square,square,1,exp1,match
10,1,2000,5,634.76,psychophysics,671,j,j,word_first,j,TRUE,方形,img/T_ambi40.png,triangle,square,1,exp1,mismatch
10,1,2000,5,634.76,psychophysics,981,f,f,word_first,f,TRUE,圆形,img/C_ambi40.png,circle,circle,1,exp1,match
10,1,2000,5,634.76,psychophysics,552,f,f,word_first,f,TRUE,圆形,img/C_ambi40.png,circle,circle,1,exp1,match
10,1,2000,5,634.76,psychophysics,663,j,j,word_first,j,TRUE,方形,img/C_ambi40.png,circle,square,1,exp1,mismatch
10,1,2000,5,634.76,psychophysics,626,j,j,word_first,j,TRUE,三角,img/C_ambi40.png,circle,triangle,1,exp1,mismatch
10,1,2000,5,634.76,psychophysics,664,j,j,word_first,j,TRUE,圆形,img/T_ambi40.png,triangle,circle,1,exp1,mismatch
10,1,2000,5,634.76,psychophysics,787,f,f,word_first,f,TRUE,三角,img/T_ambi40.png,triangle,triangle,1,exp1,match
10,1,2000,5,634.76,psychophysics,1427,j,j,word_first,j,TRUE,圆形,img/S_ambi40.png,square,circle,1,exp1,mismatch
10,1,2000,5,634.76,psychophysics,844,f,f,word_first,f,TRUE,圆形,img/C_ambi40.png,circle,circle,1,exp1,match
10,1,2000,5,634.76,psychophysics,688,j,j,word_first,j,TRUE,三角,img/C_ambi40.png,circle,triangle,1,exp1,mismatch
10,1,2000,5,634.76,psychophysics,763,j,j,word_first,j,TRUE,圆形,img/T_ambi40.png,triangle,circle,1,exp1,mismatch
10,1,2000,5,634.76,psychophysics,753,j,j,word_first,j,TRUE,三角,img/S_ambi40.png,square,triangle,1,exp1,mismatch
10,1,2000,5,634.76,psychophysics,765,f,f,word_first,f,TRUE,三角,img/T_ambi40.png,triangle,triangle,1,exp1,match
10,1,2000,5,634.76,psychophysics,530,f,f,word_first,f,TRUE,三角,img/T_ambi40.png,triangle,triangle,1,exp1,match
10,1,2000,5,634.76,psychophysics,561,j,j,word_first,j,TRUE,方形,img/T_ambi40.png,triangle,square,1,exp1,mismatch
10,1,2000,5,634.76,psychophysics,654,j,j,word_first,j,TRUE,方形,img/C_ambi40.png,circle,square,1,exp1,mismatch
10,1,2000,5,634.76,psychophysics,569,f,f,word_first,f,TRUE,圆形,img/C_ambi40.png,circle,circle,1,exp1,match
10,1,2000,5,634.76,psychophysics,754,f,f,word_first,f,TRUE,方形,img/S_ambi40.png,square,square,1,exp1,match
10,1,2000,5,634.76,psychophysics,529,f,f,word_first,f,TRUE,方形,img/S_ambi40.png,square,square,1,exp1,match
10,1,2000,5,634.76,psychophysics,452,f,f,word_first,f,TRUE,方形,img/S_ambi40.png,square,square,1,exp1,match
10,1,2000,5,634.76,psychophysics,644,j,j,word_first,j,TRUE,圆形,img/T_ambi40.png,triangle,circle,1,exp1,mismatch
10,1,2000,5,634.76,psychophysics,1084,f,f,word_first,f,TRUE,圆形,img/C_ambi40.png,circle,circle,1,exp1,match
10,1,2000,5,634.76,psychophysics,644,j,j,word_first,j,TRUE,方形,img/C_ambi40.png,circle,square,1,exp1,mismatch
