subj_idx,gender,year,education,dist,trial_type,rt,response,key_press,condition,correct_response,correct,word,Image,shape_en,valence,ACC,exp,matchness
1,0,2000,5,408.81,psychophysics,822,f,f,image_first,f,TRUE,常人,img/S_ambi40.png,square,Neutral,1,exp2,mismatch
1,0,2000,5,408.81,psychophysics,741,f,f,image_first,f,TRUE,好人,img/T_ambi40.png,triangle,Good,1,exp2,mismatch
1,0,2000,5,408.81,psychophysics,781,j,j,image_first,j,TRUE,常人,img/T_ambi40.png,triangle,Neutral,1,exp2,match
1,0,2000,5,408.81,psychophysics,683,f,f,image_first,f,TRUE,坏人,img/C_ambi40.png,circle,Bad,1,exp2,mismatch
1,0,2000,5,408.81,psychophysics,599,j,j,image_first,j,TRUE,常人,img/T_ambi40.png,triangle,Neutral,1,exp2,match
1,0,2000,5,408.81,psychophysics,783,f,f,image_first,f,TRUE,好人,img/S_ambi40.png,square,Good,1,exp2,mismatch
1,0,2000,5,408.81,psychophysics,603,j,j,image_first,j,TRUE,坏人,img/S_ambi40.png,square,Bad,1,exp2,match
1,0,2000,5,408.81,psychophysics,724,f,f,image_first,f,TRUE,常人,img/C_ambi40.png,circle,Neutral,1,exp2,mismatch
1,0,2000,5,408.81,psychophysics,918,j,j,image_first,j,TRUE,好人,img/C_ambi40.png,circle,Good,1,exp2,match
1,0,2000,5,408.81,psychophysics,731,f,f,image_first,f,TRUE,坏人,img/T_ambi40.png,triangle,Bad,1,exp2,mismatch
1,0,2000,5,408.81,psychophysics,623,j,j,image_first,j,TRUE,坏人,img/S_ambi40.png,square,Bad,1,exp2,match
1,0,2000,5,408.81,psychophysics,617,j,j,image_first,j,TRUE,好人,img/C_ambi40.png,circle,Good,1,exp2,match
1,0,2000,5,408.81,psychophysics,568,j,j,image_first,j,TRUE,好人,img/C_ambi40.png,circle,Good,1,exp2,match
1,0,2000,5,408.81,psychophysics,656,f,f,image_first,f,TRUE,好人,img/S_ambi40.png,square,Good,1,exp2,mismatch
1,0,2000,5,408.81,psychophysics,708,f,f,image_first,f,TRUE,坏人,img/C_ambi40.png,circle,Bad,1,exp2,mismatch
1,0,2000,5,408.81,psychophysics,531,j,j,image_first,j,TRUE,常人,img/T_ambi40.png,triangle,Neutral,1,exp2,match
1,0,2000,5,408.81,psychophysics,795,f,f,image_first,f,TRUE,常人,img/S_ambi40.png,square,Neutral,1,exp2,mismatch
1,0,2000,5,408.81,psychophysics,709,f,f,image_first,f,TRUE,坏人,img/T_ambi40.png,triangle,Bad,1,exp2,mismatch
1,0,2000,5,408.81,psychophysics,1042,f,f,image_first,f,TRUE,常人,img/C_ambi40.png,circle,Neutral,1,exp2,mismatch
1,0,2000,5,408.81,psychophysics,734,j,j,image_first,j,TRUE,坏人,img/S_ambi40.png,square,Bad,1,exp2,match
1,0,2000,5,408.81,psychophysics,705,j,j,image_first,j,TRUE,坏人,img/S_ambi40.png,square,Bad,1,exp2,match
1,0,2000,5,408.81,psychophysics,736,j,j,image_first,j,TRUE,常人,img/T_ambi40.png,triangle,Neutral,1,exp2,match
1,0,2000,5,408.81,psychophysics,591,j,j,image_first,j,TRUE,好人,img/C_ambi40.png,circle,Good,1,exp2,match
1,0,2000,5,408.81,psychophysics,683,f,f,image_first,f,TRUE,好人,img/T_ambi40.png,triangle,Good,1,exp2,mismatch
1,0,2000,5,408.81,psychophysics,718,f,f,image_first,f,TRUE,常人,img/S_ambi40.png,square,Neutral,1,exp2,mismatch
1,0,2000,5,408.81,psychophysics,627,j,j,image_first,j,TRUE,坏人,img/S_ambi40.png,square,Bad,1,exp2,match
1,0,2000,5,408.81,psychophysics,635,f,f,image_first,f,TRUE,坏人,img/T_ambi40.png,triangle,Bad,1,exp2,mismatch
1,0,2000,5,408.81,psychophysics,639,f,f,image_first,f,TRUE,坏人,img/C_ambi40.png,circle,Bad,1,exp2,mismatch
1,0,2000,5,408.81,psychophysics,661,f,f,image_first,f,TRUE,好人,img/T_ambi40.png,triangle,Good,1,exp2,mismatch
1,0,2000,5,408.81,psychophysics,802,f,f,image_first,f,TRUE,常人,img/C_ambi40.png,circle,Neutral,1,exp2,mismatch
1,0,2000,5,408.81,psychophysics,702,j,j,image_first,j,TRUE,常人,img/T_ambi40.png,triangle,Neutral,1,exp2,match
1,0,2000,5,408.81,psychophysics,711,j,j,image_first,j,TRUE,好人,img/C_ambi40.png,circle,Good,1,exp2,match
1,0,2000,5,408.81,psychophysics,698,f,f,image_first,f,TRUE,好人,img/S_ambi40.png,square,Good,1,exp2,mismatch
1,0,2000,5,408.81,psychophysics,546,j,j,image_first,j,TRUE,好人,img/C_ambi40.png,circle,Good,1,exp2,match
1,0,2000,5,408.81,psychophysics,670,j,j,image_first,j,TRUE,坏人,img/S_ambi40.png,square,Bad,1,exp2,match
1,0,2000,5,408.81,psychophysics,755,j,j,image_first,j,TRUE,常人,img/T_ambi40.png,triangle,Neutral,1,exp2,match
1,0,2000,5,408.81,psychophysics,690,j,j,image_first,j,TRUE,常人,img/T_ambi40.png,triangle,Neutral,1,exp2,match
1,0,2000,5,408.81,psychophysics,603,j,j,image_first,j,TRUE,好人,img/C_ambi40.png,circle,Good,1,exp2,match
1,0,2000,5,408.81,psychophysics,625,f,f,image_first,f,TRUE,好人,img/S_ambi40.png,square,Good,1,exp2,mismatch
1,0,2000,5,408.81,psychophysics,672,j,j,image_first,j,TRUE,好人,img/C_ambi40.png,circle,Good,1,exp2,match
1,0,2000,5,408.81,psychophysics,669,j,j,image_first,j,TRUE,常人,img/T_ambi40.png,triangle,Neutral,1,exp2,match
1,0,2000,5,408.81,psychophysics,801,f,f,image_first,f,TRUE,常人,img/C_ambi40.png,circle,Neutral,1,exp2,mismatch
1,0,2000,5,408.81,psychophysics,557,j,j,image_first,j,TRUE,坏人,img/S_ambi40.png,square,Bad,1,exp2,match
1,0,2000,5,408.81,psychophysics,682,f,f,image_first,f,TRUE,坏人,img/T_ambi40.png,triangle,Bad,1,exp2,mismatch
1,0,2000,5,408.81,psychophysics,840,f,f,image_first,f,TRUE,常人,img/S_ambi40.png,square,Neutral,1,exp2,mismatch
1,0,2000,5,408.81,psychophysics,712,f,f,image_first,f,TRUE,好人,img/T_ambi40.png,triangle,Good,1,exp2,mismatch
1,0,2000,5,408.81,psychophysics,593,j,j,image_first,j,TRUE,坏人,img/S_ambi40.png,square,Bad,1,exp2,match
1,0,2000,5,408.81,psychophysics,604,f,f,image_first,f,TRUE,坏人,img/C_ambi40.png,circle,Bad,1,exp2,mismatch
1,0,2000,5,408.81,psychophysics,567,j,j,image_first,j,TRUE,好人,img/C_ambi40.png,circle,Good,1,exp2,match
1,0,2000,5,408.81,psychophysics,675,j,j,image_first,j,TRUE,好人,img/C_ambi40.png,circle,Good,1,exp2,match
1,0,2000,5,408.81,psychophysics,821,f,f,image_first,f,TRUE,好人,img/S_ambi40.png,square,Good,1,exp2,mismatch
1,0,2000,5,408.81,psychophysics,615,f,f,image_first,f,TRUE,坏人,img/T_ambi40.png,triangle,Bad,1,exp2,mismatch
1,0,2000,5,408.81,psychophysics,709,f,f,image_first,f,TRUE,常人,img/S_ambi40.png,square,Neutral,1,exp2,mismatch
1,0,2000,5,408.81,psychophysics,671,j,j,image_first,j,TRUE,坏人,img/S_ambi40.png,square,Bad,1,exp2,match
1,0,2000,5,408.81,psychophysics,644,f,f,image_first,f,TRUE,好人,img/T_ambi40.png,triangle,Good,1,exp2,mismatch
1,0,2000,5,408.81,psychophysics,819,f,f,image_first,f,TRUE,坏人,img/C_ambi40.png,circle,Bad,1,exp2,mismatch
1,0,2000,5,408.81,psychophysics,634,j,j,image_first,j,TRUE,常人,img/T_ambi40.png,triangle,Neutral,1,exp2,match
1,0,2000,5,408.81,psychophysics,652,f,f,image_first,f,TRUE,常人,img/C_ambi40.png,circle,Neutral,1,exp2,mismatch
1,0,2000,5,408.81,psychophysics,652,j,j,image_first,j,TRUE,坏人,img/S_ambi40.png,square,Bad,1,exp2,match
1,0,2000,5,408.81,psychophysics,641,j,j,image_first,j,TRUE,常人,img/T_ambi40.png,triangle,Neutral,1,exp2,match
1,0,2000,5,408.81,psychophysics,932,j,j,image_first,j,TRUE,好人,img/C_ambi40.png,circle,Good,1,exp2,match
1,0,2000,5,408.81,psychophysics,608,j,j,image_first,j,TRUE,坏人,img/S_ambi40.png,square,Bad,1,exp2,match
1,0,2000,5,408.81,psychophysics,632,j,j,image_first,j,TRUE,坏人,img/S_ambi40.png,square,Bad,1,exp2,match
1,0,2000,5,408.81,psychophysics,589,f,f,image_first,f,TRUE,好人,img/S_ambi40.png,square,Good,1,exp2,mismatch
1,0,2000,5,408.81,psychophysics,863,f,f,image_first,f,TRUE,坏人,img/T_ambi40.png,triangle,Bad,1,exp2,mismatch
1,0,2000,5,408.81,psychophysics,754,f,f,image_first,f,TRUE,坏人,img/C_ambi40.png,circle,Bad,1,exp2,mismatch
1,0,2000,5,408.81,psychophysics,951,f,f,image_first,f,TRUE,好人,img/T_ambi40.png,triangle,Good,1,exp2,mismatch
1,0,2000,5,408.81,psychophysics,836,f,f,image_first,f,TRUE,常人,img/S_ambi40.png,square,Neutral,1,exp2,mismatch
1,0,2000,5,408.81,psychophysics,564,j,j,image_first,j,TRUE,好人,img/C_ambi40.png,circle,Good,1,exp2,match
1,0,2000,5,408.81,psychophysics,642,j,j,image_first,j,TRUE,常人,img/T_ambi40.png,triangle,Neutral,1,exp2,match
1,0,2000,5,408.81,psychophysics,689,f,f,image_first,f,TRUE,常人,img/C_ambi40.png,circle,Neutral,1,exp2,mismatch
1,0,2000,5,408.81,psychophysics,709,j,j,image_first,j,TRUE,常人,img/T_ambi40.png,triangle,Neutral,1,exp2,match
1,0,2000,5,408.81,psychophysics,881,f,f,image_first,f,TRUE,好人,img/S_ambi40.png,square,Good,1,exp2,mismatch
1,0,2000,5,408.81,psychophysics,673,f,f,image_first,f,TRUE,好人,img/T_ambi40.png,triangle,Good,1,exp2,mismatch
1,0,2000,5,408.81,psychophysics,707,j,j,image_first,j,TRUE,常人,img/T_ambi40.png,triangle,Neutral,1,exp2,match
1,0,2000,5,408.81,psychophysics,786,f,f,image_first,f,TRUE,常人,img/S_ambi40.png,square,Neutral,1,exp2,mismatch
1,0,2000,5,408.81,psychophysics,712,f,f,image_first,f,TRUE,坏人,img/C_ambi40.png,circle,Bad,1,exp2,mismatch
1,0,2000,5,408.81,psychophysics,673,j,j,image_first,j,TRUE,常人,img/T_ambi40.png,triangle,Neutral,1,exp2,match
1,0,2000,5,408.81,psychophysics,618,j,j,image_first,j,TRUE,好人,img/C_ambi40.png,circle,Good,1,exp2,match
1,0,2000,5,408.81,psychophysics,716,j,j,image_first,j,TRUE,坏人,img/S_ambi40.png,square,Bad,1,exp2,match
1,0,2000,5,408.81,psychophysics,700,f,f,image_first,f,TRUE,坏人,img/T_ambi40.png,triangle,Bad,1,exp2,mismatch
1,0,2000,5,408.81,psychophysics,568,j,j,image_first,j,TRUE,好人,img/C_ambi40.png,circle,Good,1,exp2,match
1,0,2000,5,408.81,psychophysics,662,j,j,image_first,j,TRUE,坏人,img/S_ambi40.png,square,Bad,1,exp2,match
1,0,2000,5,408.81,psychophysics,667,f,f,image_first,f,TRUE,常人,img/C_ambi40.png,circle,Neutral,1,exp2,mismatch
1,0,2000,5,408.81,psychophysics,783,f,f,image_first,f,TRUE,常人,img/S_ambi40.png,square,Neutral,1,exp2,mismatch
1,0,2000,5,408.81,psychophysics,731,f,f,image_first,f,TRUE,常人,img/C_ambi40.png,circle,Neutral,1,exp2,mismatch
1,0,2000,5,408.81,psychophysics,894,f,f,image_first,f,TRUE,坏人,img/C_ambi40.png,circle,Bad,1,exp2,mismatch
1,0,2000,5,408.81,psychophysics,775,j,j,image_first,j,TRUE,好人,img/C_ambi40.png,circle,Good,1,exp2,match
1,0,2000,5,408.81,psychophysics,605,f,f,image_first,f,TRUE,好人,img/T_ambi40.png,triangle,Good,1,exp2,mismatch
1,0,2000,5,408.81,psychophysics,601,j,j,image_first,j,TRUE,常人,img/T_ambi40.png,triangle,Neutral,1,exp2,match
1,0,2000,5,408.81,psychophysics,644,f,f,image_first,f,TRUE,坏人,img/T_ambi40.png,triangle,Bad,1,exp2,mismatch
1,0,2000,5,408.81,psychophysics,597,j,j,image_first,j,TRUE,坏人,img/S_ambi40.png,square,Bad,1,exp2,match
1,0,2000,5,408.81,psychophysics,575,f,f,image_first,f,TRUE,好人,img/S_ambi40.png,square,Good,1,exp2,mismatch
1,0,2000,5,408.81,psychophysics,573,j,j,image_first,j,TRUE,好人,img/C_ambi40.png,circle,Good,1,exp2,match
1,0,2000,5,408.81,psychophysics,672,j,j,image_first,j,TRUE,常人,img/T_ambi40.png,triangle,Neutral,1,exp2,match
1,0,2000,5,408.81,psychophysics,571,j,j,image_first,j,TRUE,坏人,img/S_ambi40.png,square,Bad,1,exp2,match
1,0,2000,5,408.81,psychophysics,629,f,f,image_first,f,TRUE,坏人,img/T_ambi40.png,triangle,Bad,1,exp2,mismatch
1,0,2000,5,408.81,psychophysics,641,f,f,image_first,f,TRUE,坏人,img/C_ambi40.png,circle,Bad,1,exp2,mismatch
1,0,2000,5,408.81,psychophysics,823,f,f,image_first,f,TRUE,好人,img/S_ambi40.png,square,Good,1,exp2,mismatch
1,0,2000,5,408.81,psychophysics,657,j,j,image_first,j,TRUE,坏人,img/S_ambi40.png,square,Bad,1,exp2,match
1,0,2000,5,408.81,psychophysics,646,j,j,image_first,j,TRUE,常人,img/T_ambi40.png,triangle,Neutral,1,exp2,match
1,0,2000,5,408.81,psychophysics,682,j,j,image_first,j,TRUE,常人,img/T_ambi40.png,triangle,Neutral,1,exp2,match
1,0,2000,5,408.81,psychophysics,573,j,j,image_first,j,TRUE,好人,img/C_ambi40.png,circle,Good,1,exp2,match
1,0,2000,5,408.81,psychophysics,694,f,f,image_first,f,TRUE,好人,img/T_ambi40.png,triangle,Good,1,exp2,mismatch
1,0,2000,5,408.81,psychophysics,685,f,f,image_first,f,TRUE,常人,img/C_ambi40.png,circle,Neutral,1,exp2,mismatch
1,0,2000,5,408.81,psychophysics,585,j,j,image_first,j,TRUE,好人,img/C_ambi40.png,circle,Good,1,exp2,match
1,0,2000,5,408.81,psychophysics,569,j,j,image_first,j,TRUE,坏人,img/S_ambi40.png,square,Bad,1,exp2,match
1,0,2000,5,408.81,psychophysics,653,f,f,image_first,f,TRUE,常人,img/S_ambi40.png,square,Neutral,1,exp2,mismatch
1,0,2000,5,408.81,psychophysics,660,j,j,image_first,j,TRUE,坏人,img/S_ambi40.png,square,Bad,1,exp2,match
1,0,2000,5,408.81,psychophysics,611,f,f,image_first,f,TRUE,坏人,img/C_ambi40.png,circle,Bad,1,exp2,mismatch
1,0,2000,5,408.81,psychophysics,655,j,j,image_first,j,TRUE,常人,img/T_ambi40.png,triangle,Neutral,1,exp2,match
1,0,2000,5,408.81,psychophysics,834,f,f,image_first,f,TRUE,常人,img/C_ambi40.png,circle,Neutral,1,exp2,mismatch
1,0,2000,5,408.81,psychophysics,571,j,j,image_first,j,TRUE,坏人,img/S_ambi40.png,square,Bad,1,exp2,match
1,0,2000,5,408.81,psychophysics,570,f,f,image_first,f,TRUE,好人,img/S_ambi40.png,square,Good,1,exp2,mismatch
1,0,2000,5,408.81,psychophysics,645,j,j,image_first,j,TRUE,常人,img/T_ambi40.png,triangle,Neutral,1,exp2,match
1,0,2000,5,408.81,psychophysics,553,f,f,image_first,f,TRUE,好人,img/T_ambi40.png,triangle,Good,1,exp2,mismatch
1,0,2000,5,408.81,psychophysics,687,f,f,image_first,f,TRUE,坏人,img/T_ambi40.png,triangle,Bad,1,exp2,mismatch
1,0,2000,5,408.81,psychophysics,693,j,j,image_first,j,TRUE,好人,img/C_ambi40.png,circle,Good,1,exp2,match
1,0,2000,5,408.81,psychophysics,594,j,j,image_first,j,TRUE,好人,img/C_ambi40.png,circle,Good,1,exp2,match
1,0,2000,5,408.81,psychophysics,595,f,f,image_first,f,TRUE,常人,img/S_ambi40.png,square,Neutral,1,exp2,mismatch
1,0,2000,5,408.81,psychophysics,695,f,f,image_first,f,TRUE,坏人,img/T_ambi40.png,triangle,Bad,1,exp2,mismatch
1,0,2000,5,408.81,psychophysics,617,j,j,image_first,j,TRUE,常人,img/T_ambi40.png,triangle,Neutral,1,exp2,match
1,0,2000,5,408.81,psychophysics,603,j,j,image_first,j,TRUE,好人,img/C_ambi40.png,circle,Good,1,exp2,match
1,0,2000,5,408.81,psychophysics,589,f,f,image_first,f,TRUE,坏人,img/C_ambi40.png,circle,Bad,1,exp2,mismatch
1,0,2000,5,408.81,psychophysics,690,f,f,image_first,f,TRUE,好人,img/T_ambi40.png,triangle,Good,1,exp2,mismatch
1,0,2000,5,408.81,psychophysics,603,j,j,image_first,j,TRUE,坏人,img/S_ambi40.png,square,Bad,1,exp2,match
1,0,2000,5,408.81,psychophysics,681,f,f,image_first,f,TRUE,常人,img/C_ambi40.png,circle,Neutral,1,exp2,mismatch
1,0,2000,5,408.81,psychophysics,618,j,j,image_first,j,TRUE,好人,img/C_ambi40.png,circle,Good,1,exp2,match
1,0,2000,5,408.81,psychophysics,729,f,f,image_first,f,TRUE,常人,img/S_ambi40.png,square,Neutral,1,exp2,mismatch
1,0,2000,5,408.81,psychophysics,663,j,j,image_first,j,TRUE,常人,img/T_ambi40.png,triangle,Neutral,1,exp2,match
1,0,2000,5,408.81,psychophysics,682,j,j,image_first,j,TRUE,坏人,img/S_ambi40.png,square,Bad,1,exp2,match
1,0,2000,5,408.81,psychophysics,610,f,f,image_first,f,TRUE,好人,img/S_ambi40.png,square,Good,1,exp2,mismatch
1,0,2000,5,408.81,psychophysics,737,f,f,image_first,f,TRUE,好人,img/T_ambi40.png,triangle,Good,1,exp2,mismatch
1,0,2000,5,408.81,psychophysics,627,f,f,image_first,f,TRUE,坏人,img/C_ambi40.png,circle,Bad,1,exp2,mismatch
1,0,2000,5,408.81,psychophysics,643,j,j,image_first,j,TRUE,常人,img/T_ambi40.png,triangle,Neutral,1,exp2,match
1,0,2000,5,408.81,psychophysics,829,f,f,image_first,f,TRUE,好人,img/S_ambi40.png,square,Good,1,exp2,mismatch
1,0,2000,5,408.81,psychophysics,520,j,j,image_first,j,TRUE,好人,img/C_ambi40.png,circle,Good,1,exp2,match
1,0,2000,5,408.81,psychophysics,768,f,f,image_first,f,TRUE,常人,img/C_ambi40.png,circle,Neutral,1,exp2,mismatch
1,0,2000,5,408.81,psychophysics,540,j,j,image_first,j,TRUE,坏人,img/S_ambi40.png,square,Bad,1,exp2,match
1,0,2000,5,408.81,psychophysics,591,f,f,image_first,f,TRUE,常人,img/S_ambi40.png,square,Neutral,1,exp2,mismatch
1,0,2000,5,408.81,psychophysics,704,f,f,image_first,f,TRUE,坏人,img/T_ambi40.png,triangle,Bad,1,exp2,mismatch
1,0,2000,5,408.81,psychophysics,648,j,j,image_first,j,TRUE,坏人,img/S_ambi40.png,square,Bad,1,exp2,match
1,0,2000,5,408.81,psychophysics,522,j,j,image_first,j,TRUE,好人,img/C_ambi40.png,circle,Good,1,exp2,match
1,0,2000,5,408.81,psychophysics,724,f,f,image_first,f,TRUE,常人,img/S_ambi40.png,square,Neutral,1,exp2,mismatch
1,0,2000,5,408.81,psychophysics,666,f,f,image_first,f,TRUE,坏人,img/C_ambi40.png,circle,Bad,1,exp2,mismatch
1,0,2000,5,408.81,psychophysics,654,j,j,image_first,j,TRUE,坏人,img/S_ambi40.png,square,Bad,1,exp2,match
1,0,2000,5,408.81,psychophysics,705,j,j,image_first,j,TRUE,坏人,img/S_ambi40.png,square,Bad,1,exp2,match
1,0,2000,5,408.81,psychophysics,706,f,f,image_first,f,TRUE,常人,img/C_ambi40.png,circle,Neutral,1,exp2,mismatch
1,0,2000,5,408.81,psychophysics,713,f,f,image_first,f,TRUE,好人,img/T_ambi40.png,triangle,Good,1,exp2,mismatch
1,0,2000,5,408.81,psychophysics,610,f,f,image_first,f,TRUE,好人,img/S_ambi40.png,square,Good,1,exp2,mismatch
1,0,2000,5,408.81,psychophysics,598,j,j,image_first,j,TRUE,常人,img/T_ambi40.png,triangle,Neutral,1,exp2,match
1,0,2000,5,408.81,psychophysics,543,j,j,image_first,j,TRUE,好人,img/C_ambi40.png,circle,Good,1,exp2,match
1,0,2000,5,408.81,psychophysics,577,j,j,image_first,j,TRUE,常人,img/T_ambi40.png,triangle,Neutral,1,exp2,match
1,0,2000,5,408.81,psychophysics,698,f,f,image_first,f,TRUE,坏人,img/T_ambi40.png,triangle,Bad,1,exp2,mismatch
1,0,2000,5,408.81,psychophysics,529,j,j,image_first,j,TRUE,好人,img/C_ambi40.png,circle,Good,1,exp2,match
1,0,2000,5,408.81,psychophysics,770,f,f,image_first,f,TRUE,常人,img/S_ambi40.png,square,Neutral,1,exp2,mismatch
1,0,2000,5,408.81,psychophysics,642,j,j,image_first,j,TRUE,常人,img/T_ambi40.png,triangle,Neutral,1,exp2,match
1,0,2000,5,408.81,psychophysics,673,f,f,image_first,f,TRUE,好人,img/T_ambi40.png,triangle,Good,1,exp2,mismatch
1,0,2000,5,408.81,psychophysics,556,j,j,image_first,j,TRUE,坏人,img/S_ambi40.png,square,Bad,1,exp2,match
1,0,2000,5,408.81,psychophysics,663,f,f,image_first,f,TRUE,坏人,img/C_ambi40.png,circle,Bad,1,exp2,mismatch
1,0,2000,5,408.81,psychophysics,561,j,j,image_first,j,TRUE,坏人,img/S_ambi40.png,square,Bad,1,exp2,match
1,0,2000,5,408.81,psychophysics,611,j,j,image_first,j,TRUE,好人,img/C_ambi40.png,circle,Good,1,exp2,match
1,0,2000,5,408.81,psychophysics,512,j,j,image_first,j,TRUE,好人,img/C_ambi40.png,circle,Good,1,exp2,match
1,0,2000,5,408.81,psychophysics,603,f,f,image_first,f,TRUE,常人,img/C_ambi40.png,circle,Neutral,1,exp2,mismatch
1,0,2000,5,408.81,psychophysics,624,j,j,image_first,j,TRUE,常人,img/T_ambi40.png,triangle,Neutral,1,exp2,match
1,0,2000,5,408.81,psychophysics,632,f,f,image_first,f,TRUE,坏人,img/T_ambi40.png,triangle,Bad,1,exp2,mismatch
1,0,2000,5,408.81,psychophysics,682,f,f,image_first,f,TRUE,好人,img/S_ambi40.png,square,Good,1,exp2,mismatch
1,0,2000,5,408.81,psychophysics,582,f,f,image_first,f,TRUE,坏人,img/T_ambi40.png,triangle,Bad,1,exp2,mismatch
1,0,2000,5,408.81,psychophysics,608,j,j,image_first,j,TRUE,坏人,img/S_ambi40.png,square,Bad,1,exp2,match
1,0,2000,5,408.81,psychophysics,594,j,j,image_first,j,TRUE,好人,img/C_ambi40.png,circle,Good,1,exp2,match
1,0,2000,5,408.81,psychophysics,577,j,j,image_first,j,TRUE,常人,img/T_ambi40.png,triangle,Neutral,1,exp2,match
1,0,2000,5,408.81,psychophysics,609,f,f,image_first,f,TRUE,坏人,img/C_ambi40.png,circle,Bad,1,exp2,mismatch
1,0,2000,5,408.81,psychophysics,667,f,f,image_first,f,TRUE,好人,img/T_ambi40.png,triangle,Good,1,exp2,mismatch
1,0,2000,5,408.81,psychophysics,635,j,j,image_first,j,TRUE,常人,img/T_ambi40.png,triangle,Neutral,1,exp2,match
1,0,2000,5,408.81,psychophysics,706,f,f,image_first,f,TRUE,常人,img/S_ambi40.png,square,Neutral,1,exp2,mismatch
1,0,2000,5,408.81,psychophysics,586,j,j,image_first,j,TRUE,好人,img/C_ambi40.png,circle,Good,1,exp2,match
1,0,2000,5,408.81,psychophysics,636,f,f,image_first,f,TRUE,常人,img/C_ambi40.png,circle,Neutral,1,exp2,mismatch
1,0,2000,5,408.81,psychophysics,597,j,j,image_first,j,TRUE,坏人,img/S_ambi40.png,square,Bad,1,exp2,match
1,0,2000,5,408.81,psychophysics,551,f,f,image_first,f,TRUE,好人,img/S_ambi40.png,square,Good,1,exp2,mismatch
1,0,2000,5,408.81,psychophysics,659,j,j,image_first,j,TRUE,坏人,img/S_ambi40.png,square,Bad,1,exp2,match
1,0,2000,5,408.81,psychophysics,540,j,j,image_first,j,TRUE,好人,img/C_ambi40.png,circle,Good,1,exp2,match
1,0,2000,5,408.81,psychophysics,907,f,f,image_first,f,TRUE,好人,img/S_ambi40.png,square,Good,1,exp2,mismatch
1,0,2000,5,408.81,psychophysics,627,f,f,image_first,f,TRUE,坏人,img/T_ambi40.png,triangle,Bad,1,exp2,mismatch
1,0,2000,5,408.81,psychophysics,794,f,f,image_first,f,TRUE,常人,img/S_ambi40.png,square,Neutral,1,exp2,mismatch
1,0,2000,5,408.81,psychophysics,799,j,j,image_first,j,TRUE,常人,img/T_ambi40.png,triangle,Neutral,1,exp2,match
1,0,2000,5,408.81,psychophysics,535,j,j,image_first,j,TRUE,好人,img/C_ambi40.png,circle,Good,1,exp2,match
1,0,2000,5,408.81,psychophysics,710,f,f,image_first,f,TRUE,常人,img/C_ambi40.png,circle,Neutral,1,exp2,mismatch
1,0,2000,5,408.81,psychophysics,631,f,f,image_first,f,TRUE,好人,img/T_ambi40.png,triangle,Good,1,exp2,mismatch
1,0,2000,5,408.81,psychophysics,597,j,j,image_first,j,TRUE,坏人,img/S_ambi40.png,square,Bad,1,exp2,match
1,0,2000,5,408.81,psychophysics,713,j,j,image_first,j,TRUE,常人,img/T_ambi40.png,triangle,Neutral,1,exp2,match
1,0,2000,5,408.81,psychophysics,577,f,f,image_first,f,TRUE,坏人,img/C_ambi40.png,circle,Bad,1,exp2,mismatch
1,0,2000,5,408.81,psychophysics,590,f,f,image_first,f,TRUE,坏人,img/C_ambi40.png,circle,Bad,1,exp2,mismatch
1,0,2000,5,408.81,psychophysics,558,j,j,image_first,j,TRUE,常人,img/T_ambi40.png,triangle,Neutral,1,exp2,match
1,0,2000,5,408.81,psychophysics,511,j,j,image_first,j,TRUE,好人,img/C_ambi40.png,circle,Good,1,exp2,match
1,0,2000,5,408.81,psychophysics,593,f,f,image_first,f,TRUE,坏人,img/T_ambi40.png,triangle,Bad,1,exp2,mismatch
1,0,2000,5,408.81,psychophysics,749,f,f,image_first,f,TRUE,常人,img/S_ambi40.png,square,Neutral,1,exp2,mismatch
1,0,2000,5,408.81,psychophysics,556,j,j,image_first,j,TRUE,坏人,img/S_ambi40.png,square,Bad,1,exp2,match
1,0,2000,5,408.81,psychophysics,695,f,f,image_first,f,TRUE,常人,img/C_ambi40.png,circle,Neutral,1,exp2,mismatch
1,0,2000,5,408.81,psychophysics,732,f,f,image_first,f,TRUE,好人,img/S_ambi40.png,square,Good,1,exp2,mismatch
1,0,2000,5,408.81,psychophysics,660,f,f,image_first,f,TRUE,好人,img/T_ambi40.png,triangle,Good,1,exp2,mismatch
1,0,2000,5,408.81,psychophysics,712,j,j,image_first,j,TRUE,常人,img/T_ambi40.png,triangle,Neutral,1,exp2,match
1,0,2000,5,408.81,psychophysics,589,j,j,image_first,j,TRUE,坏人,img/S_ambi40.png,square,Bad,1,exp2,match
1,0,2000,5,408.81,psychophysics,593,j,j,image_first,j,TRUE,好人,img/C_ambi40.png,circle,Good,1,exp2,match
1,0,2000,5,408.81,psychophysics,631,f,f,image_first,f,TRUE,好人,img/S_ambi40.png,square,Good,1,exp2,mismatch
1,0,2000,5,408.81,psychophysics,705,f,f,image_first,f,TRUE,常人,img/C_ambi40.png,circle,Neutral,1,exp2,mismatch
1,0,2000,5,408.81,psychophysics,750,j,j,image_first,j,TRUE,好人,img/C_ambi40.png,circle,Good,1,exp2,match
1,0,2000,5,408.81,psychophysics,571,j,j,image_first,j,TRUE,常人,img/T_ambi40.png,triangle,Neutral,1,exp2,match
1,0,2000,5,408.81,psychophysics,608,j,j,image_first,j,TRUE,坏人,img/S_ambi40.png,square,Bad,1,exp2,match
1,0,2000,5,408.81,psychophysics,561,f,f,image_first,f,TRUE,坏人,img/C_ambi40.png,circle,Bad,1,exp2,mismatch
1,0,2000,5,408.81,psychophysics,462,j,j,image_first,j,TRUE,好人,img/C_ambi40.png,circle,Good,1,exp2,match
1,0,2000,5,408.81,psychophysics,744,f,f,image_first,f,TRUE,坏人,img/T_ambi40.png,triangle,Bad,1,exp2,mismatch
1,0,2000,5,408.81,psychophysics,566,j,j,image_first,j,TRUE,常人,img/T_ambi40.png,triangle,Neutral,1,exp2,match
1,0,2000,5,408.81,psychophysics,528,j,j,image_first,j,TRUE,坏人,img/S_ambi40.png,square,Bad,1,exp2,match
1,0,2000,5,408.81,psychophysics,750,f,f,image_first,f,TRUE,常人,img/S_ambi40.png,square,Neutral,1,exp2,mismatch
1,0,2000,5,408.81,psychophysics,674,f,f,image_first,f,TRUE,好人,img/T_ambi40.png,triangle,Good,1,exp2,mismatch
1,0,2000,5,408.81,psychophysics,802,f,f,image_first,f,TRUE,常人,img/S_ambi40.png,square,Neutral,1,exp2,mismatch
1,0,2000,5,408.81,psychophysics,504,j,j,image_first,j,TRUE,好人,img/C_ambi40.png,circle,Good,1,exp2,match
1,0,2000,5,408.81,psychophysics,843,j,j,image_first,j,TRUE,好人,img/C_ambi40.png,circle,Good,1,exp2,match
1,0,2000,5,408.81,psychophysics,665,j,j,image_first,j,TRUE,常人,img/T_ambi40.png,triangle,Neutral,1,exp2,match
1,0,2000,5,408.81,psychophysics,594,j,j,image_first,j,TRUE,坏人,img/S_ambi40.png,square,Bad,1,exp2,match
1,0,2000,5,408.81,psychophysics,673,j,j,image_first,j,TRUE,坏人,img/S_ambi40.png,square,Bad,1,exp2,match
1,0,2000,5,408.81,psychophysics,768,f,f,image_first,f,TRUE,好人,img/S_ambi40.png,square,Good,1,exp2,mismatch
1,0,2000,5,408.81,psychophysics,690,f,f,image_first,f,TRUE,坏人,img/T_ambi40.png,triangle,Bad,1,exp2,mismatch
1,0,2000,5,408.81,psychophysics,660,f,f,image_first,f,TRUE,坏人,img/C_ambi40.png,circle,Bad,1,exp2,mismatch
1,0,2000,5,408.81,psychophysics,672,f,f,image_first,f,TRUE,好人,img/T_ambi40.png,triangle,Good,1,exp2,mismatch
1,0,2000,5,408.81,psychophysics,801,f,f,image_first,f,TRUE,常人,img/C_ambi40.png,circle,Neutral,1,exp2,mismatch
1,0,2000,5,408.81,psychophysics,675,j,j,image_first,j,TRUE,常人,img/T_ambi40.png,triangle,Neutral,1,exp2,match
1,0,2000,5,408.81,psychophysics,744,f,f,image_first,f,TRUE,常人,img/S_ambi40.png,square,Neutral,1,exp2,mismatch
1,0,2000,5,408.81,psychophysics,533,j,j,image_first,j,TRUE,坏人,img/S_ambi40.png,square,Bad,1,exp2,match
1,0,2000,5,408.81,psychophysics,701,f,f,image_first,f,TRUE,好人,img/S_ambi40.png,square,Good,1,exp2,mismatch
1,0,2000,5,408.81,psychophysics,596,j,j,image_first,j,TRUE,常人,img/T_ambi40.png,triangle,Neutral,1,exp2,match
1,0,2000,5,408.81,psychophysics,488,j,j,image_first,j,TRUE,好人,img/C_ambi40.png,circle,Good,1,exp2,match
1,0,2000,5,408.81,psychophysics,636,f,f,image_first,f,TRUE,常人,img/C_ambi40.png,circle,Neutral,1,exp2,mismatch
1,0,2000,5,408.81,psychophysics,678,f,f,image_first,f,TRUE,好人,img/T_ambi40.png,triangle,Good,1,exp2,mismatch
1,0,2000,5,408.81,psychophysics,678,f,f,image_first,f,TRUE,坏人,img/C_ambi40.png,circle,Bad,1,exp2,mismatch
1,0,2000,5,408.81,psychophysics,597,f,f,image_first,f,TRUE,坏人,img/T_ambi40.png,triangle,Bad,1,exp2,mismatch
1,0,2000,5,408.81,psychophysics,556,j,j,image_first,j,TRUE,好人,img/C_ambi40.png,circle,Good,1,exp2,match
1,0,2000,5,408.81,psychophysics,601,j,j,image_first,j,TRUE,坏人,img/S_ambi40.png,square,Bad,1,exp2,match
1,0,2000,5,408.81,psychophysics,653,j,j,image_first,j,TRUE,常人,img/T_ambi40.png,triangle,Neutral,1,exp2,match
1,0,2000,5,408.81,psychophysics,761,f,f,word_first,f,TRUE,常人,img/C_ambi40.png,circle,Neutral,1,exp2,mismatch
1,0,2000,5,408.81,psychophysics,745,f,f,word_first,f,TRUE,好人,img/S_ambi40.png,square,Good,1,exp2,mismatch
1,0,2000,5,408.81,psychophysics,639,j,j,word_first,j,TRUE,坏人,img/S_ambi40.png,square,Bad,1,exp2,match
1,0,2000,5,408.81,psychophysics,566,j,j,word_first,j,TRUE,好人,img/C_ambi40.png,circle,Good,1,exp2,match
1,0,2000,5,408.81,psychophysics,510,j,j,word_first,j,TRUE,好人,img/C_ambi40.png,circle,Good,1,exp2,match
1,0,2000,5,408.81,psychophysics,591,j,j,word_first,j,TRUE,坏人,img/S_ambi40.png,square,Bad,1,exp2,match
1,0,2000,5,408.81,psychophysics,669,f,f,word_first,f,TRUE,坏人,img/C_ambi40.png,circle,Bad,1,exp2,mismatch
1,0,2000,5,408.81,psychophysics,574,j,j,word_first,j,TRUE,常人,img/T_ambi40.png,triangle,Neutral,1,exp2,match
1,0,2000,5,408.81,psychophysics,839,j,j,word_first,j,TRUE,常人,img/T_ambi40.png,triangle,Neutral,1,exp2,match
1,0,2000,5,408.81,psychophysics,705,f,f,word_first,f,TRUE,坏人,img/T_ambi40.png,triangle,Bad,1,exp2,mismatch
1,0,2000,5,408.81,psychophysics,763,f,f,word_first,f,TRUE,常人,img/S_ambi40.png,square,Neutral,1,exp2,mismatch
1,0,2000,5,408.81,psychophysics,753,f,f,word_first,f,TRUE,好人,img/T_ambi40.png,triangle,Good,1,exp2,mismatch
1,0,2000,5,408.81,psychophysics,626,f,f,word_first,f,TRUE,常人,img/S_ambi40.png,square,Neutral,1,exp2,mismatch
1,0,2000,5,408.81,psychophysics,566,j,j,word_first,j,TRUE,好人,img/C_ambi40.png,circle,Good,1,exp2,match
1,0,2000,5,408.81,psychophysics,664,j,j,word_first,j,TRUE,坏人,img/S_ambi40.png,square,Bad,1,exp2,match
1,0,2000,5,408.81,psychophysics,547,j,j,word_first,j,TRUE,好人,img/C_ambi40.png,circle,Good,1,exp2,match
1,0,2000,5,408.81,psychophysics,725,f,f,word_first,f,TRUE,坏人,img/C_ambi40.png,circle,Bad,1,exp2,mismatch
1,0,2000,5,408.81,psychophysics,603,j,j,word_first,j,TRUE,坏人,img/S_ambi40.png,square,Bad,1,exp2,match
1,0,2000,5,408.81,psychophysics,572,j,j,word_first,j,TRUE,常人,img/T_ambi40.png,triangle,Neutral,1,exp2,match
1,0,2000,5,408.81,psychophysics,659,f,f,word_first,f,TRUE,常人,img/C_ambi40.png,circle,Neutral,1,exp2,mismatch
1,0,2000,5,408.81,psychophysics,662,f,f,word_first,f,TRUE,好人,img/S_ambi40.png,square,Good,1,exp2,mismatch
1,0,2000,5,408.81,psychophysics,659,f,f,word_first,f,TRUE,好人,img/T_ambi40.png,triangle,Good,1,exp2,mismatch
1,0,2000,5,408.81,psychophysics,665,j,j,word_first,j,TRUE,常人,img/T_ambi40.png,triangle,Neutral,1,exp2,match
1,0,2000,5,408.81,psychophysics,664,f,f,word_first,f,TRUE,坏人,img/T_ambi40.png,triangle,Bad,1,exp2,mismatch
1,0,2000,5,408.81,psychophysics,741,f,f,word_first,f,TRUE,好人,img/S_ambi40.png,square,Good,1,exp2,mismatch
1,0,2000,5,408.81,psychophysics,598,j,j,word_first,j,TRUE,常人,img/T_ambi40.png,triangle,Neutral,1,exp2,match
1,0,2000,5,408.81,psychophysics,751,j,j,word_first,j,TRUE,坏人,img/S_ambi40.png,square,Bad,1,exp2,match
1,0,2000,5,408.81,psychophysics,591,j,j,word_first,j,TRUE,好人,img/C_ambi40.png,circle,Good,1,exp2,match
1,0,2000,5,408.81,psychophysics,565,f,f,word_first,f,TRUE,好人,img/T_ambi40.png,triangle,Good,1,exp2,mismatch
1,0,2000,5,408.81,psychophysics,615,f,f,word_first,f,TRUE,常人,img/S_ambi40.png,square,Neutral,1,exp2,mismatch
1,0,2000,5,408.81,psychophysics,612,f,f,word_first,f,TRUE,坏人,img/T_ambi40.png,triangle,Bad,1,exp2,mismatch
1,0,2000,5,408.81,psychophysics,506,j,j,word_first,j,TRUE,好人,img/C_ambi40.png,circle,Good,1,exp2,match
1,0,2000,5,408.81,psychophysics,632,f,f,word_first,f,TRUE,坏人,img/C_ambi40.png,circle,Bad,1,exp2,mismatch
1,0,2000,5,408.81,psychophysics,640,f,f,word_first,f,TRUE,常人,img/C_ambi40.png,circle,Neutral,1,exp2,mismatch
1,0,2000,5,408.81,psychophysics,617,j,j,word_first,j,TRUE,坏人,img/S_ambi40.png,square,Bad,1,exp2,match
1,0,2000,5,408.81,psychophysics,616,j,j,word_first,j,TRUE,坏人,img/S_ambi40.png,square,Bad,1,exp2,match
1,0,2000,5,408.81,psychophysics,877,f,f,word_first,f,TRUE,常人,img/C_ambi40.png,circle,Neutral,1,exp2,mismatch
1,0,2000,5,408.81,psychophysics,626,f,f,word_first,f,TRUE,坏人,img/T_ambi40.png,triangle,Bad,1,exp2,mismatch
1,0,2000,5,408.81,psychophysics,538,j,j,word_first,j,TRUE,好人,img/C_ambi40.png,circle,Good,1,exp2,match
1,0,2000,5,408.81,psychophysics,550,f,f,word_first,f,TRUE,好人,img/T_ambi40.png,triangle,Good,1,exp2,mismatch
1,0,2000,5,408.81,psychophysics,588,j,j,word_first,j,TRUE,常人,img/T_ambi40.png,triangle,Neutral,1,exp2,match
1,0,2000,5,408.81,psychophysics,542,j,j,word_first,j,TRUE,好人,img/C_ambi40.png,circle,Good,1,exp2,match
1,0,2000,5,408.81,psychophysics,636,j,j,word_first,j,TRUE,常人,img/T_ambi40.png,triangle,Neutral,1,exp2,match
1,0,2000,5,408.81,psychophysics,575,j,j,word_first,j,TRUE,坏人,img/S_ambi40.png,square,Bad,1,exp2,match
1,0,2000,5,408.81,psychophysics,622,f,f,word_first,f,TRUE,好人,img/S_ambi40.png,square,Good,1,exp2,mismatch
1,0,2000,5,408.81,psychophysics,735,f,f,word_first,f,TRUE,坏人,img/C_ambi40.png,circle,Bad,1,exp2,mismatch
1,0,2000,5,408.81,psychophysics,635,f,f,word_first,f,TRUE,常人,img/S_ambi40.png,square,Neutral,1,exp2,mismatch
1,0,2000,5,408.81,psychophysics,542,j,j,word_first,j,TRUE,常人,img/T_ambi40.png,triangle,Neutral,1,exp2,match
1,0,2000,5,408.81,psychophysics,537,j,j,word_first,j,TRUE,好人,img/C_ambi40.png,circle,Good,1,exp2,match
1,0,2000,5,408.81,psychophysics,558,f,f,word_first,f,TRUE,坏人,img/T_ambi40.png,triangle,Bad,1,exp2,mismatch
1,0,2000,5,408.81,psychophysics,1004,f,f,word_first,f,TRUE,常人,img/S_ambi40.png,square,Neutral,1,exp2,mismatch
1,0,2000,5,408.81,psychophysics,540,j,j,word_first,j,TRUE,常人,img/T_ambi40.png,triangle,Neutral,1,exp2,match
1,0,2000,5,408.81,psychophysics,653,f,f,word_first,f,TRUE,好人,img/S_ambi40.png,square,Good,1,exp2,mismatch
1,0,2000,5,408.81,psychophysics,577,j,j,word_first,j,TRUE,坏人,img/S_ambi40.png,square,Bad,1,exp2,match
1,0,2000,5,408.81,psychophysics,555,f,f,word_first,f,TRUE,好人,img/T_ambi40.png,triangle,Good,1,exp2,mismatch
1,0,2000,5,408.81,psychophysics,579,f,f,word_first,f,TRUE,坏人,img/C_ambi40.png,circle,Bad,1,exp2,mismatch
1,0,2000,5,408.81,psychophysics,646,f,f,word_first,f,TRUE,常人,img/C_ambi40.png,circle,Neutral,1,exp2,mismatch
1,0,2000,5,408.81,psychophysics,546,j,j,word_first,j,TRUE,好人,img/C_ambi40.png,circle,Good,1,exp2,match
1,0,2000,5,408.81,psychophysics,596,j,j,word_first,j,TRUE,坏人,img/S_ambi40.png,square,Bad,1,exp2,match
1,0,2000,5,408.81,psychophysics,668,j,j,word_first,j,TRUE,坏人,img/S_ambi40.png,square,Bad,1,exp2,match
1,0,2000,5,408.81,psychophysics,614,f,f,word_first,f,TRUE,坏人,img/T_ambi40.png,triangle,Bad,1,exp2,mismatch
1,0,2000,5,408.81,psychophysics,765,j,j,word_first,j,TRUE,常人,img/T_ambi40.png,triangle,Neutral,1,exp2,match
1,0,2000,5,408.81,psychophysics,646,f,f,word_first,f,TRUE,坏人,img/C_ambi40.png,circle,Bad,1,exp2,mismatch
1,0,2000,5,408.81,psychophysics,534,j,j,word_first,j,TRUE,好人,img/C_ambi40.png,circle,Good,1,exp2,match
1,0,2000,5,408.81,psychophysics,558,j,j,word_first,j,TRUE,常人,img/T_ambi40.png,triangle,Neutral,1,exp2,match
1,0,2000,5,408.81,psychophysics,584,f,f,word_first,f,TRUE,好人,img/T_ambi40.png,triangle,Good,1,exp2,mismatch
1,0,2000,5,408.81,psychophysics,660,f,f,word_first,f,TRUE,好人,img/S_ambi40.png,square,Good,1,exp2,mismatch
1,0,2000,5,408.81,psychophysics,580,j,j,word_first,j,TRUE,坏人,img/S_ambi40.png,square,Bad,1,exp2,match
1,0,2000,5,408.81,psychophysics,588,f,f,word_first,f,TRUE,常人,img/S_ambi40.png,square,Neutral,1,exp2,mismatch
1,0,2000,5,408.81,psychophysics,507,j,j,word_first,j,TRUE,好人,img/C_ambi40.png,circle,Good,1,exp2,match
1,0,2000,5,408.81,psychophysics,625,f,f,word_first,f,TRUE,常人,img/C_ambi40.png,circle,Neutral,1,exp2,mismatch
1,0,2000,5,408.81,psychophysics,509,j,j,word_first,j,TRUE,好人,img/C_ambi40.png,circle,Good,1,exp2,match
1,0,2000,5,408.81,psychophysics,537,j,j,word_first,j,TRUE,常人,img/T_ambi40.png,triangle,Neutral,1,exp2,match
1,0,2000,5,408.81,psychophysics,526,j,j,word_first,j,TRUE,好人,img/C_ambi40.png,circle,Good,1,exp2,match
1,0,2000,5,408.81,psychophysics,671,f,f,word_first,f,TRUE,常人,img/C_ambi40.png,circle,Neutral,1,exp2,mismatch
1,0,2000,5,408.81,psychophysics,628,f,f,word_first,f,TRUE,坏人,img/C_ambi40.png,circle,Bad,1,exp2,mismatch
1,0,2000,5,408.81,psychophysics,602,f,f,word_first,f,TRUE,好人,img/S_ambi40.png,square,Good,1,exp2,mismatch
1,0,2000,5,408.81,psychophysics,642,f,f,word_first,f,TRUE,好人,img/T_ambi40.png,triangle,Good,1,exp2,mismatch
1,0,2000,5,408.81,psychophysics,676,f,f,word_first,f,TRUE,常人,img/S_ambi40.png,square,Neutral,1,exp2,mismatch
1,0,2000,5,408.81,psychophysics,627,j,j,word_first,j,TRUE,坏人,img/S_ambi40.png,square,Bad,1,exp2,match
1,0,2000,5,408.81,psychophysics,651,f,f,word_first,f,TRUE,坏人,img/T_ambi40.png,triangle,Bad,1,exp2,mismatch
1,0,2000,5,408.81,psychophysics,591,j,j,word_first,j,TRUE,坏人,img/S_ambi40.png,square,Bad,1,exp2,match
1,0,2000,5,408.81,psychophysics,593,j,j,word_first,j,TRUE,常人,img/T_ambi40.png,triangle,Neutral,1,exp2,match
1,0,2000,5,408.81,psychophysics,825,j,j,word_first,j,TRUE,坏人,img/S_ambi40.png,square,Bad,1,exp2,match
1,0,2000,5,408.81,psychophysics,576,f,f,word_first,f,TRUE,坏人,img/C_ambi40.png,circle,Bad,1,exp2,mismatch
1,0,2000,5,408.81,psychophysics,692,f,f,word_first,f,TRUE,好人,img/T_ambi40.png,triangle,Good,1,exp2,mismatch
1,0,2000,5,408.81,psychophysics,932,f,f,word_first,f,TRUE,好人,img/S_ambi40.png,square,Good,1,exp2,mismatch
1,0,2000,5,408.81,psychophysics,681,j,j,word_first,j,TRUE,常人,img/T_ambi40.png,triangle,Neutral,1,exp2,match
1,0,2000,5,408.81,psychophysics,533,j,j,word_first,j,TRUE,好人,img/C_ambi40.png,circle,Good,1,exp2,match
1,0,2000,5,408.81,psychophysics,701,f,f,word_first,f,TRUE,坏人,img/T_ambi40.png,triangle,Bad,1,exp2,mismatch
1,0,2000,5,408.81,psychophysics,558,j,j,word_first,j,TRUE,常人,img/T_ambi40.png,triangle,Neutral,1,exp2,match
1,0,2000,5,408.81,psychophysics,569,j,j,word_first,j,TRUE,好人,img/C_ambi40.png,circle,Good,1,exp2,match
1,0,2000,5,408.81,psychophysics,1142,f,f,word_first,f,TRUE,常人,img/S_ambi40.png,square,Neutral,1,exp2,mismatch
1,0,2000,5,408.81,psychophysics,810,f,f,word_first,f,TRUE,常人,img/C_ambi40.png,circle,Neutral,1,exp2,mismatch
1,0,2000,5,408.81,psychophysics,579,j,j,word_first,j,TRUE,坏人,img/S_ambi40.png,square,Bad,1,exp2,match
1,0,2000,5,408.81,psychophysics,581,j,j,word_first,j,TRUE,好人,img/C_ambi40.png,circle,Good,1,exp2,match
1,0,2000,5,408.81,psychophysics,537,j,j,word_first,j,TRUE,好人,img/C_ambi40.png,circle,Good,1,exp2,match
1,0,2000,5,408.81,psychophysics,552,j,j,word_first,j,TRUE,坏人,img/S_ambi40.png,square,Bad,1,exp2,match
1,0,2000,5,408.81,psychophysics,725,f,f,word_first,f,TRUE,坏人,img/C_ambi40.png,circle,Bad,1,exp2,mismatch
1,0,2000,5,408.81,psychophysics,623,f,f,word_first,f,TRUE,常人,img/S_ambi40.png,square,Neutral,1,exp2,mismatch
1,0,2000,5,408.81,psychophysics,612,f,f,word_first,f,TRUE,好人,img/S_ambi40.png,square,Good,1,exp2,mismatch
1,0,2000,5,408.81,psychophysics,692,f,f,word_first,f,TRUE,坏人,img/T_ambi40.png,triangle,Bad,1,exp2,mismatch
1,0,2000,5,408.81,psychophysics,665,f,f,word_first,f,TRUE,常人,img/C_ambi40.png,circle,Neutral,1,exp2,mismatch
1,0,2000,5,408.81,psychophysics,481,j,j,word_first,j,TRUE,常人,img/T_ambi40.png,triangle,Neutral,1,exp2,match
1,0,2000,5,408.81,psychophysics,584,j,j,word_first,j,TRUE,坏人,img/S_ambi40.png,square,Bad,1,exp2,match
1,0,2000,5,408.81,psychophysics,556,f,f,word_first,f,TRUE,好人,img/T_ambi40.png,triangle,Good,1,exp2,mismatch
1,0,2000,5,408.81,psychophysics,529,j,j,word_first,j,TRUE,常人,img/T_ambi40.png,triangle,Neutral,1,exp2,match
1,0,2000,5,408.81,psychophysics,546,f,f,word_first,f,TRUE,常人,img/S_ambi40.png,square,Neutral,1,exp2,mismatch
1,0,2000,5,408.81,psychophysics,564,f,f,word_first,f,TRUE,坏人,img/T_ambi40.png,triangle,Bad,1,exp2,mismatch
1,0,2000,5,408.81,psychophysics,564,f,f,word_first,f,TRUE,好人,img/T_ambi40.png,triangle,Good,1,exp2,mismatch
1,0,2000,5,408.81,psychophysics,548,j,j,word_first,j,TRUE,好人,img/C_ambi40.png,circle,Good,1,exp2,match
1,0,2000,5,408.81,psychophysics,622,j,j,word_first,j,TRUE,好人,img/C_ambi40.png,circle,Good,1,exp2,match
1,0,2000,5,408.81,psychophysics,599,j,j,word_first,j,TRUE,坏人,img/S_ambi40.png,square,Bad,1,exp2,match
1,0,2000,5,408.81,psychophysics,686,f,f,word_first,f,TRUE,坏人,img/C_ambi40.png,circle,Bad,1,exp2,mismatch
1,0,2000,5,408.81,psychophysics,589,j,j,word_first,j,TRUE,常人,img/T_ambi40.png,triangle,Neutral,1,exp2,match
1,0,2000,5,408.81,psychophysics,668,f,f,word_first,f,TRUE,常人,img/C_ambi40.png,circle,Neutral,1,exp2,mismatch
1,0,2000,5,408.81,psychophysics,532,j,j,word_first,j,TRUE,坏人,img/S_ambi40.png,square,Bad,1,exp2,match
1,0,2000,5,408.81,psychophysics,604,f,f,word_first,f,TRUE,好人,img/S_ambi40.png,square,Good,1,exp2,mismatch
1,0,2000,5,408.81,psychophysics,678,j,j,word_first,j,TRUE,常人,img/T_ambi40.png,triangle,Neutral,1,exp2,match
1,0,2000,5,408.81,psychophysics,630,j,j,word_first,j,TRUE,坏人,img/S_ambi40.png,square,Bad,1,exp2,match
1,0,2000,5,408.81,psychophysics,580,f,f,word_first,f,TRUE,坏人,img/C_ambi40.png,circle,Bad,1,exp2,mismatch
1,0,2000,5,408.81,psychophysics,655,f,f,word_first,f,TRUE,坏人,img/T_ambi40.png,triangle,Bad,1,exp2,mismatch
1,0,2000,5,408.81,psychophysics,542,j,j,word_first,j,TRUE,好人,img/C_ambi40.png,circle,Good,1,exp2,match
1,0,2000,5,408.81,psychophysics,714,f,f,word_first,f,TRUE,好人,img/S_ambi40.png,square,Good,1,exp2,mismatch
1,0,2000,5,408.81,psychophysics,615,j,j,word_first,j,TRUE,好人,img/C_ambi40.png,circle,Good,1,exp2,match
1,0,2000,5,408.81,psychophysics,578,j,j,word_first,j,TRUE,常人,img/T_ambi40.png,triangle,Neutral,1,exp2,match
1,0,2000,5,408.81,psychophysics,529,j,j,word_first,j,TRUE,常人,img/T_ambi40.png,triangle,Neutral,1,exp2,match
1,0,2000,5,408.81,psychophysics,523,j,j,word_first,j,TRUE,坏人,img/S_ambi40.png,square,Bad,1,exp2,match
1,0,2000,5,408.81,psychophysics,549,f,f,word_first,f,TRUE,常人,img/C_ambi40.png,circle,Neutral,1,exp2,mismatch
1,0,2000,5,408.81,psychophysics,599,f,f,word_first,f,TRUE,好人,img/T_ambi40.png,triangle,Good,1,exp2,mismatch
1,0,2000,5,408.81,psychophysics,766,f,f,word_first,f,TRUE,常人,img/S_ambi40.png,square,Neutral,1,exp2,mismatch
1,0,2000,5,408.81,psychophysics,670,f,f,word_first,f,TRUE,常人,img/S_ambi40.png,square,Neutral,1,exp2,mismatch
1,0,2000,5,408.81,psychophysics,543,j,j,word_first,j,TRUE,坏人,img/S_ambi40.png,square,Bad,1,exp2,match
1,0,2000,5,408.81,psychophysics,574,j,j,word_first,j,TRUE,常人,img/T_ambi40.png,triangle,Neutral,1,exp2,match
1,0,2000,5,408.81,psychophysics,575,f,f,word_first,f,TRUE,好人,img/S_ambi40.png,square,Good,1,exp2,mismatch
1,0,2000,5,408.81,psychophysics,569,j,j,word_first,j,TRUE,常人,img/T_ambi40.png,triangle,Neutral,1,exp2,match
1,0,2000,5,408.81,psychophysics,556,j,j,word_first,j,TRUE,坏人,img/S_ambi40.png,square,Bad,1,exp2,match
1,0,2000,5,408.81,psychophysics,762,f,f,word_first,f,TRUE,常人,img/C_ambi40.png,circle,Neutral,1,exp2,mismatch
1,0,2000,5,408.81,psychophysics,641,f,f,word_first,f,TRUE,坏人,img/T_ambi40.png,triangle,Bad,1,exp2,mismatch
1,0,2000,5,408.81,psychophysics,502,j,j,word_first,j,TRUE,好人,img/C_ambi40.png,circle,Good,1,exp2,match
1,0,2000,5,408.81,psychophysics,578,f,f,word_first,f,TRUE,好人,img/T_ambi40.png,triangle,Good,1,exp2,mismatch
1,0,2000,5,408.81,psychophysics,490,j,j,word_first,j,TRUE,好人,img/C_ambi40.png,circle,Good,1,exp2,match
1,0,2000,5,408.81,psychophysics,623,f,f,word_first,f,TRUE,坏人,img/C_ambi40.png,circle,Bad,1,exp2,mismatch
1,0,2000,5,408.81,psychophysics,736,f,f,word_first,f,TRUE,好人,img/S_ambi40.png,square,Good,1,exp2,mismatch
1,0,2000,5,408.81,psychophysics,650,j,j,word_first,j,TRUE,坏人,img/S_ambi40.png,square,Bad,1,exp2,match
1,0,2000,5,408.81,psychophysics,589,j,j,word_first,j,TRUE,好人,img/C_ambi40.png,circle,Good,1,exp2,match
1,0,2000,5,408.81,psychophysics,565,f,f,word_first,f,TRUE,常人,img/C_ambi40.png,circle,Neutral,1,exp2,mismatch
1,0,2000,5,408.81,psychophysics,559,j,j,word_first,j,TRUE,坏人,img/S_ambi40.png,square,Bad,1,exp2,match
1,0,2000,5,408.81,psychophysics,511,j,j,word_first,j,TRUE,好人,img/C_ambi40.png,circle,Good,1,exp2,match
1,0,2000,5,408.81,psychophysics,559,f,f,word_first,f,TRUE,好人,img/T_ambi40.png,triangle,Good,1,exp2,mismatch
1,0,2000,5,408.81,psychophysics,593,f,f,word_first,f,TRUE,坏人,img/T_ambi40.png,triangle,Bad,1,exp2,mismatch
1,0,2000,5,408.81,psychophysics,588,j,j,word_first,j,TRUE,常人,img/T_ambi40.png,triangle,Neutral,1,exp2,match
1,0,2000,5,408.81,psychophysics,671,f,f,word_first,f,TRUE,坏人,img/C_ambi40.png,circle,Bad,1,exp2,mismatch
1,0,2000,5,408.81,psychophysics,680,f,f,word_first,f,TRUE,常人,img/S_ambi40.png,square,Neutral,1,exp2,mismatch
1,0,2000,5,408.81,psychophysics,543,j,j,word_first,j,TRUE,常人,img/T_ambi40.png,triangle,Neutral,1,exp2,match
1,0,2000,5,408.81,psychophysics,564,j,j,word_first,j,TRUE,好人,img/C_ambi40.png,circle,Good,1,exp2,match
1,0,2000,5,408.81,psychophysics,581,j,j,word_first,j,TRUE,坏人,img/S_ambi40.png,square,Bad,1,exp2,match
1,0,2000,5,408.81,psychophysics,525,j,j,word_first,j,TRUE,好人,img/C_ambi40.png,circle,Good,1,exp2,match
1,0,2000,5,408.81,psychophysics,558,f,f,word_first,f,TRUE,常人,img/S_ambi40.png,square,Neutral,1,exp2,mismatch
1,0,2000,5,408.81,psychophysics,585,f,f,word_first,f,TRUE,好人,img/T_ambi40.png,triangle,Good,1,exp2,mismatch
1,0,2000,5,408.81,psychophysics,654,f,f,word_first,f,TRUE,坏人,img/T_ambi40.png,triangle,Bad,1,exp2,mismatch
1,0,2000,5,408.81,psychophysics,544,j,j,word_first,j,TRUE,常人,img/T_ambi40.png,triangle,Neutral,1,exp2,match
1,0,2000,5,408.81,psychophysics,508,j,j,word_first,j,TRUE,坏人,img/S_ambi40.png,square,Bad,1,exp2,match
1,0,2000,5,408.81,psychophysics,680,f,f,word_first,f,TRUE,坏人,img/C_ambi40.png,circle,Bad,1,exp2,mismatch
1,0,2000,5,408.81,psychophysics,607,f,f,word_first,f,TRUE,常人,img/C_ambi40.png,circle,Neutral,1,exp2,mismatch
1,0,2000,5,408.81,psychophysics,678,f,f,word_first,f,TRUE,好人,img/S_ambi40.png,square,Good,1,exp2,mismatch
1,0,2000,5,408.81,psychophysics,537,j,j,word_first,j,TRUE,常人,img/T_ambi40.png,triangle,Neutral,1,exp2,match
1,0,2000,5,408.81,psychophysics,671,j,j,word_first,j,TRUE,坏人,img/S_ambi40.png,square,Bad,1,exp2,match
1,0,2000,5,408.81,psychophysics,707,f,f,word_first,f,TRUE,常人,img/S_ambi40.png,square,Neutral,1,exp2,mismatch
1,0,2000,5,408.81,psychophysics,628,f,f,word_first,f,TRUE,坏人,img/C_ambi40.png,circle,Bad,1,exp2,mismatch
1,0,2000,5,408.81,psychophysics,567,j,j,word_first,j,TRUE,常人,img/T_ambi40.png,triangle,Neutral,1,exp2,match
1,0,2000,5,408.81,psychophysics,661,f,f,word_first,f,TRUE,常人,img/C_ambi40.png,circle,Neutral,1,exp2,mismatch
1,0,2000,5,408.81,psychophysics,616,j,j,word_first,j,TRUE,好人,img/C_ambi40.png,circle,Good,1,exp2,match
1,0,2000,5,408.81,psychophysics,596,f,f,word_first,f,TRUE,好人,img/T_ambi40.png,triangle,Good,1,exp2,mismatch
1,0,2000,5,408.81,psychophysics,651,j,j,word_first,j,TRUE,好人,img/C_ambi40.png,circle,Good,1,exp2,match
1,0,2000,5,408.81,psychophysics,570,f,f,word_first,f,TRUE,好人,img/S_ambi40.png,square,Good,1,exp2,mismatch
1,0,2000,5,408.81,psychophysics,714,j,j,word_first,j,TRUE,常人,img/T_ambi40.png,triangle,Neutral,1,exp2,match
1,0,2000,5,408.81,psychophysics,688,j,j,word_first,j,TRUE,坏人,img/S_ambi40.png,square,Bad,1,exp2,match
1,0,2000,5,408.81,psychophysics,620,f,f,word_first,f,TRUE,坏人,img/T_ambi40.png,triangle,Bad,1,exp2,mismatch
1,0,2000,5,408.81,psychophysics,571,j,j,word_first,j,TRUE,坏人,img/S_ambi40.png,square,Bad,1,exp2,match
1,0,2000,5,408.81,psychophysics,645,f,f,word_first,f,TRUE,常人,img/S_ambi40.png,square,Neutral,1,exp2,mismatch
1,0,2000,5,408.81,psychophysics,673,f,f,word_first,f,TRUE,坏人,img/T_ambi40.png,triangle,Bad,1,exp2,mismatch
1,0,2000,5,408.81,psychophysics,550,j,j,word_first,j,TRUE,好人,img/C_ambi40.png,circle,Good,1,exp2,match
1,0,2000,5,408.81,psychophysics,586,j,j,word_first,j,TRUE,好人,img/C_ambi40.png,circle,Good,1,exp2,match
1,0,2000,5,408.81,psychophysics,619,j,j,word_first,j,TRUE,常人,img/T_ambi40.png,triangle,Neutral,1,exp2,match
1,0,2000,5,408.81,psychophysics,604,f,f,word_first,f,TRUE,常人,img/C_ambi40.png,circle,Neutral,1,exp2,mismatch
1,0,2000,5,408.81,psychophysics,702,j,j,word_first,j,TRUE,常人,img/T_ambi40.png,triangle,Neutral,1,exp2,match
1,0,2000,5,408.81,psychophysics,572,j,j,word_first,j,TRUE,坏人,img/S_ambi40.png,square,Bad,1,exp2,match
1,0,2000,5,408.81,psychophysics,703,f,f,word_first,f,TRUE,坏人,img/C_ambi40.png,circle,Bad,1,exp2,mismatch
1,0,2000,5,408.81,psychophysics,712,f,f,word_first,f,TRUE,好人,img/S_ambi40.png,square,Good,1,exp2,mismatch
1,0,2000,5,408.81,psychophysics,721,f,f,word_first,f,TRUE,好人,img/T_ambi40.png,triangle,Good,1,exp2,mismatch
1,0,2000,5,408.81,psychophysics,630,f,f,word_first,f,TRUE,好人,img/T_ambi40.png,triangle,Good,1,exp2,mismatch
1,0,2000,5,408.81,psychophysics,561,j,j,word_first,j,TRUE,常人,img/T_ambi40.png,triangle,Neutral,1,exp2,match
1,0,2000,5,408.81,psychophysics,660,j,j,word_first,j,TRUE,常人,img/T_ambi40.png,triangle,Neutral,1,exp2,match
1,0,2000,5,408.81,psychophysics,527,j,j,word_first,j,TRUE,好人,img/C_ambi40.png,circle,Good,1,exp2,match
1,0,2000,5,408.81,psychophysics,726,f,f,word_first,f,TRUE,坏人,img/C_ambi40.png,circle,Bad,1,exp2,mismatch
1,0,2000,5,408.81,psychophysics,660,j,j,word_first,j,TRUE,坏人,img/S_ambi40.png,square,Bad,1,exp2,match
1,0,2000,5,408.81,psychophysics,770,f,f,word_first,f,TRUE,常人,img/C_ambi40.png,circle,Neutral,1,exp2,mismatch
1,0,2000,5,408.81,psychophysics,655,f,f,word_first,f,TRUE,常人,img/S_ambi40.png,square,Neutral,1,exp2,mismatch
1,0,2000,5,408.81,psychophysics,686,f,f,word_first,f,TRUE,坏人,img/T_ambi40.png,triangle,Bad,1,exp2,mismatch
1,0,2000,5,408.81,psychophysics,618,f,f,word_first,f,TRUE,好人,img/S_ambi40.png,square,Good,1,exp2,mismatch
1,0,2000,5,408.81,psychophysics,632,j,j,word_first,j,TRUE,坏人,img/S_ambi40.png,square,Bad,1,exp2,match
1,0,2000,5,408.81,psychophysics,523,j,j,word_first,j,TRUE,好人,img/C_ambi40.png,circle,Good,1,exp2,match
1,0,2000,5,408.81,psychophysics,625,j,j,word_first,j,TRUE,常人,img/T_ambi40.png,triangle,Neutral,1,exp2,match
1,0,2000,5,408.81,psychophysics,574,f,f,word_first,f,TRUE,好人,img/S_ambi40.png,square,Good,1,exp2,mismatch
1,0,2000,5,408.81,psychophysics,608,f,f,word_first,f,TRUE,常人,img/S_ambi40.png,square,Neutral,1,exp2,mismatch
1,0,2000,5,408.81,psychophysics,658,f,f,word_first,f,TRUE,常人,img/C_ambi40.png,circle,Neutral,1,exp2,mismatch
1,0,2000,5,408.81,psychophysics,608,f,f,word_first,f,TRUE,好人,img/T_ambi40.png,triangle,Good,1,exp2,mismatch
1,0,2000,5,408.81,psychophysics,593,j,j,word_first,j,TRUE,常人,img/T_ambi40.png,triangle,Neutral,1,exp2,match
1,0,2000,5,408.81,psychophysics,661,f,f,word_first,f,TRUE,坏人,img/C_ambi40.png,circle,Bad,1,exp2,mismatch
1,0,2000,5,408.81,psychophysics,572,j,j,word_first,j,TRUE,坏人,img/S_ambi40.png,square,Bad,1,exp2,match
1,0,2000,5,408.81,psychophysics,600,f,f,word_first,f,TRUE,坏人,img/T_ambi40.png,triangle,Bad,1,exp2,mismatch
1,0,2000,5,408.81,psychophysics,469,j,j,word_first,j,TRUE,好人,img/C_ambi40.png,circle,Good,1,exp2,match
1,0,2000,5,408.81,psychophysics,548,j,j,word_first,j,TRUE,好人,img/C_ambi40.png,circle,Good,1,exp2,match
1,0,2000,5,408.81,psychophysics,574,j,j,word_first,j,TRUE,坏人,img/S_ambi40.png,square,Bad,1,exp2,match
1,0,2000,5,408.81,psychophysics,603,j,j,word_first,j,TRUE,好人,img/C_ambi40.png,circle,Good,1,exp2,match
1,0,2000,5,408.81,psychophysics,601,f,f,word_first,f,TRUE,坏人,img/C_ambi40.png,circle,Bad,1,exp2,mismatch
1,0,2000,5,408.81,psychophysics,571,j,j,word_first,j,TRUE,常人,img/T_ambi40.png,triangle,Neutral,1,exp2,match
1,0,2000,5,408.81,psychophysics,798,f,f,word_first,f,TRUE,常人,img/S_ambi40.png,square,Neutral,1,exp2,mismatch
1,0,2000,5,408.81,psychophysics,508,j,j,word_first,j,TRUE,好人,img/C_ambi40.png,circle,Good,1,exp2,match
1,0,2000,5,408.81,psychophysics,679,f,f,word_first,f,TRUE,好人,img/T_ambi40.png,triangle,Good,1,exp2,mismatch
1,0,2000,5,408.81,psychophysics,584,j,j,word_first,j,TRUE,坏人,img/S_ambi40.png,square,Bad,1,exp2,match
1,0,2000,5,408.81,psychophysics,665,j,j,word_first,j,TRUE,坏人,img/S_ambi40.png,square,Bad,1,exp2,match
1,0,2000,5,408.81,psychophysics,606,f,f,word_first,f,TRUE,好人,img/S_ambi40.png,square,Good,1,exp2,mismatch
1,0,2000,5,408.81,psychophysics,687,f,f,word_first,f,TRUE,坏人,img/T_ambi40.png,triangle,Bad,1,exp2,mismatch
1,0,2000,5,408.81,psychophysics,625,j,j,word_first,j,TRUE,常人,img/T_ambi40.png,triangle,Neutral,1,exp2,match
1,0,2000,5,408.81,psychophysics,551,f,f,word_first,f,TRUE,常人,img/C_ambi40.png,circle,Neutral,1,exp2,mismatch
1,0,2000,5,408.81,psychophysics,678,f,f,word_first,f,TRUE,坏人,img/T_ambi40.png,triangle,Bad,1,exp2,mismatch
1,0,2000,5,408.81,psychophysics,589,j,j,word_first,j,TRUE,好人,img/C_ambi40.png,circle,Good,1,exp2,match
1,0,2000,5,408.81,psychophysics,586,j,j,word_first,j,TRUE,坏人,img/S_ambi40.png,square,Bad,1,exp2,match
1,0,2000,5,408.81,psychophysics,532,j,j,word_first,j,TRUE,好人,img/C_ambi40.png,circle,Good,1,exp2,match
1,0,2000,5,408.81,psychophysics,620,f,f,word_first,f,TRUE,好人,img/T_ambi40.png,triangle,Good,1,exp2,mismatch
1,0,2000,5,408.81,psychophysics,643,f,f,word_first,f,TRUE,常人,img/S_ambi40.png,square,Neutral,1,exp2,mismatch
1,0,2000,5,408.81,psychophysics,621,f,f,word_first,f,TRUE,常人,img/C_ambi40.png,circle,Neutral,1,exp2,mismatch
1,0,2000,5,408.81,psychophysics,549,j,j,word_first,j,TRUE,坏人,img/S_ambi40.png,square,Bad,1,exp2,match
1,0,2000,5,408.81,psychophysics,818,j,j,word_first,j,TRUE,常人,img/T_ambi40.png,triangle,Neutral,1,exp2,match
1,0,2000,5,408.81,psychophysics,597,f,f,word_first,f,TRUE,坏人,img/C_ambi40.png,circle,Bad,1,exp2,mismatch
1,0,2000,5,408.81,psychophysics,619,j,j,word_first,j,TRUE,常人,img/T_ambi40.png,triangle,Neutral,1,exp2,match
1,0,2000,5,408.81,psychophysics,713,f,f,word_first,f,TRUE,好人,img/S_ambi40.png,square,Good,1,exp2,mismatch
1,0,2000,5,408.81,psychophysics,980,f,f,simultaneous,f,TRUE,坏人,img/C_ambi40.png,circle,Bad,1,exp2,mismatch
1,0,2000,5,408.81,psychophysics,779,f,f,simultaneous,f,TRUE,常人,img/C_ambi40.png,circle,Neutral,1,exp2,mismatch
1,0,2000,5,408.81,psychophysics,738,j,j,simultaneous,j,TRUE,好人,img/C_ambi40.png,circle,Good,1,exp2,match
1,0,2000,5,408.81,psychophysics,763,j,j,simultaneous,j,TRUE,常人,img/T_ambi40.png,triangle,Neutral,1,exp2,match
1,0,2000,5,408.81,psychophysics,660,j,j,simultaneous,j,TRUE,好人,img/C_ambi40.png,circle,Good,1,exp2,match
1,0,2000,5,408.81,psychophysics,677,j,j,simultaneous,j,TRUE,坏人,img/S_ambi40.png,square,Bad,1,exp2,match
1,0,2000,5,408.81,psychophysics,737,f,f,simultaneous,f,TRUE,好人,img/T_ambi40.png,triangle,Good,1,exp2,mismatch
1,0,2000,5,408.81,psychophysics,708,j,j,simultaneous,j,TRUE,坏人,img/S_ambi40.png,square,Bad,1,exp2,match
1,0,2000,5,408.81,psychophysics,792,f,f,simultaneous,f,TRUE,常人,img/S_ambi40.png,square,Neutral,1,exp2,mismatch
1,0,2000,5,408.81,psychophysics,827,f,f,simultaneous,f,TRUE,坏人,img/T_ambi40.png,triangle,Bad,1,exp2,mismatch
1,0,2000,5,408.81,psychophysics,718,f,f,simultaneous,f,TRUE,好人,img/S_ambi40.png,square,Good,1,exp2,mismatch
1,0,2000,5,408.81,psychophysics,743,j,j,simultaneous,j,TRUE,常人,img/T_ambi40.png,triangle,Neutral,1,exp2,match
1,0,2000,5,408.81,psychophysics,646,j,j,simultaneous,j,TRUE,坏人,img/S_ambi40.png,square,Bad,1,exp2,match
1,0,2000,5,408.81,psychophysics,707,j,j,simultaneous,j,TRUE,好人,img/C_ambi40.png,circle,Good,1,exp2,match
1,0,2000,5,408.81,psychophysics,840,f,f,simultaneous,f,TRUE,好人,img/S_ambi40.png,square,Good,1,exp2,mismatch
1,0,2000,5,408.81,psychophysics,652,j,j,simultaneous,j,TRUE,常人,img/T_ambi40.png,triangle,Neutral,1,exp2,match
1,0,2000,5,408.81,psychophysics,664,j,j,simultaneous,j,TRUE,常人,img/T_ambi40.png,triangle,Neutral,1,exp2,match
1,0,2000,5,408.81,psychophysics,706,f,f,simultaneous,f,TRUE,坏人,img/C_ambi40.png,circle,Bad,1,exp2,mismatch
1,0,2000,5,408.81,psychophysics,704,f,f,simultaneous,f,TRUE,好人,img/T_ambi40.png,triangle,Good,1,exp2,mismatch
1,0,2000,5,408.81,psychophysics,636,j,j,simultaneous,j,TRUE,好人,img/C_ambi40.png,circle,Good,1,exp2,match
1,0,2000,5,408.81,psychophysics,695,f,f,simultaneous,f,TRUE,常人,img/S_ambi40.png,square,Neutral,1,exp2,mismatch
1,0,2000,5,408.81,psychophysics,787,f,f,simultaneous,f,TRUE,常人,img/C_ambi40.png,circle,Neutral,1,exp2,mismatch
1,0,2000,5,408.81,psychophysics,627,j,j,simultaneous,j,TRUE,坏人,img/S_ambi40.png,square,Bad,1,exp2,match
1,0,2000,5,408.81,psychophysics,656,j,j,simultaneous,j,TRUE,坏人,img/S_ambi40.png,square,Bad,1,exp2,match
1,0,2000,5,408.81,psychophysics,783,f,f,simultaneous,f,TRUE,好人,img/S_ambi40.png,square,Good,1,exp2,mismatch
1,0,2000,5,408.81,psychophysics,698,j,j,simultaneous,j,TRUE,好人,img/C_ambi40.png,circle,Good,1,exp2,match
1,0,2000,5,408.81,psychophysics,688,f,f,simultaneous,f,TRUE,常人,img/S_ambi40.png,square,Neutral,1,exp2,mismatch
1,0,2000,5,408.81,psychophysics,741,f,f,simultaneous,f,TRUE,坏人,img/C_ambi40.png,circle,Bad,1,exp2,mismatch
1,0,2000,5,408.81,psychophysics,727,j,j,simultaneous,j,TRUE,常人,img/T_ambi40.png,triangle,Neutral,1,exp2,match
1,0,2000,5,408.81,psychophysics,709,f,f,simultaneous,f,TRUE,好人,img/T_ambi40.png,triangle,Good,1,exp2,mismatch
1,0,2000,5,408.81,psychophysics,1023,f,f,simultaneous,f,TRUE,常人,img/C_ambi40.png,circle,Neutral,1,exp2,mismatch
1,0,2000,5,408.81,psychophysics,665,j,j,simultaneous,j,TRUE,坏人,img/S_ambi40.png,square,Bad,1,exp2,match
1,0,2000,5,408.81,psychophysics,838,f,f,simultaneous,f,TRUE,坏人,img/T_ambi40.png,triangle,Bad,1,exp2,mismatch
1,0,2000,5,408.81,psychophysics,666,j,j,simultaneous,j,TRUE,好人,img/C_ambi40.png,circle,Good,1,exp2,match
1,0,2000,5,408.81,psychophysics,790,j,j,simultaneous,j,TRUE,常人,img/T_ambi40.png,triangle,Neutral,1,exp2,match
1,0,2000,5,408.81,psychophysics,810,j,j,simultaneous,j,TRUE,好人,img/C_ambi40.png,circle,Good,1,exp2,match
1,0,2000,5,408.81,psychophysics,675,j,j,simultaneous,j,TRUE,坏人,img/S_ambi40.png,square,Bad,1,exp2,match
1,0,2000,5,408.81,psychophysics,653,j,j,simultaneous,j,TRUE,好人,img/C_ambi40.png,circle,Good,1,exp2,match
1,0,2000,5,408.81,psychophysics,849,f,f,simultaneous,f,TRUE,坏人,img/T_ambi40.png,triangle,Bad,1,exp2,mismatch
1,0,2000,5,408.81,psychophysics,915,f,f,simultaneous,f,TRUE,好人,img/S_ambi40.png,square,Good,1,exp2,mismatch
1,0,2000,5,408.81,psychophysics,909,j,j,simultaneous,j,TRUE,坏人,img/S_ambi40.png,square,Bad,1,exp2,match
1,0,2000,5,408.81,psychophysics,667,f,f,simultaneous,f,TRUE,好人,img/T_ambi40.png,triangle,Good,1,exp2,mismatch
1,0,2000,5,408.81,psychophysics,840,f,f,simultaneous,f,TRUE,坏人,img/C_ambi40.png,circle,Bad,1,exp2,mismatch
1,0,2000,5,408.81,psychophysics,662,j,j,simultaneous,j,TRUE,常人,img/T_ambi40.png,triangle,Neutral,1,exp2,match
1,0,2000,5,408.81,psychophysics,768,f,f,simultaneous,f,TRUE,常人,img/C_ambi40.png,circle,Neutral,1,exp2,mismatch
1,0,2000,5,408.81,psychophysics,782,f,f,simultaneous,f,TRUE,常人,img/S_ambi40.png,square,Neutral,1,exp2,mismatch
1,0,2000,5,408.81,psychophysics,694,j,j,simultaneous,j,TRUE,常人,img/T_ambi40.png,triangle,Neutral,1,exp2,match
1,0,2000,5,408.81,psychophysics,662,j,j,simultaneous,j,TRUE,常人,img/T_ambi40.png,triangle,Neutral,1,exp2,match
1,0,2000,5,408.81,psychophysics,583,j,j,simultaneous,j,TRUE,常人,img/T_ambi40.png,triangle,Neutral,1,exp2,match
1,0,2000,5,408.81,psychophysics,661,f,f,simultaneous,f,TRUE,好人,img/S_ambi40.png,square,Good,1,exp2,mismatch
1,0,2000,5,408.81,psychophysics,840,f,f,simultaneous,f,TRUE,好人,img/T_ambi40.png,triangle,Good,1,exp2,mismatch
1,0,2000,5,408.81,psychophysics,641,j,j,simultaneous,j,TRUE,好人,img/C_ambi40.png,circle,Good,1,exp2,match
1,0,2000,5,408.81,psychophysics,759,j,j,simultaneous,j,TRUE,坏人,img/S_ambi40.png,square,Bad,1,exp2,match
1,0,2000,5,408.81,psychophysics,693,j,j,simultaneous,j,TRUE,坏人,img/S_ambi40.png,square,Bad,1,exp2,match
1,0,2000,5,408.81,psychophysics,787,f,f,simultaneous,f,TRUE,坏人,img/C_ambi40.png,circle,Bad,1,exp2,mismatch
1,0,2000,5,408.81,psychophysics,656,j,j,simultaneous,j,TRUE,好人,img/C_ambi40.png,circle,Good,1,exp2,match
1,0,2000,5,408.81,psychophysics,877,f,f,simultaneous,f,TRUE,常人,img/S_ambi40.png,square,Neutral,1,exp2,mismatch
1,0,2000,5,408.81,psychophysics,1062,f,f,simultaneous,f,TRUE,常人,img/C_ambi40.png,circle,Neutral,1,exp2,mismatch
1,0,2000,5,408.81,psychophysics,714,f,f,simultaneous,f,TRUE,坏人,img/T_ambi40.png,triangle,Bad,1,exp2,mismatch
1,0,2000,5,408.81,psychophysics,822,j,j,simultaneous,j,TRUE,好人,img/C_ambi40.png,circle,Good,1,exp2,match
1,0,2000,5,408.81,psychophysics,665,j,j,simultaneous,j,TRUE,坏人,img/S_ambi40.png,square,Bad,1,exp2,match
1,0,2000,5,408.81,psychophysics,678,f,f,simultaneous,f,TRUE,常人,img/C_ambi40.png,circle,Neutral,1,exp2,mismatch
1,0,2000,5,408.81,psychophysics,779,f,f,simultaneous,f,TRUE,常人,img/S_ambi40.png,square,Neutral,1,exp2,mismatch
1,0,2000,5,408.81,psychophysics,742,j,j,simultaneous,j,TRUE,常人,img/T_ambi40.png,triangle,Neutral,1,exp2,match
1,0,2000,5,408.81,psychophysics,629,j,j,simultaneous,j,TRUE,好人,img/C_ambi40.png,circle,Good,1,exp2,match
1,0,2000,5,408.81,psychophysics,702,f,f,simultaneous,f,TRUE,好人,img/T_ambi40.png,triangle,Good,1,exp2,mismatch
1,0,2000,5,408.81,psychophysics,710,f,f,simultaneous,f,TRUE,好人,img/S_ambi40.png,square,Good,1,exp2,mismatch
1,0,2000,5,408.81,psychophysics,735,f,f,simultaneous,f,TRUE,坏人,img/C_ambi40.png,circle,Bad,1,exp2,mismatch
1,0,2000,5,408.81,psychophysics,704,j,j,simultaneous,j,TRUE,坏人,img/S_ambi40.png,square,Bad,1,exp2,match
1,0,2000,5,408.81,psychophysics,712,f,f,simultaneous,f,TRUE,坏人,img/T_ambi40.png,triangle,Bad,1,exp2,mismatch
1,0,2000,5,408.81,psychophysics,668,j,j,simultaneous,j,TRUE,常人,img/T_ambi40.png,triangle,Neutral,1,exp2,match
1,0,2000,5,408.81,psychophysics,655,j,j,simultaneous,j,TRUE,常人,img/T_ambi40.png,triangle,Neutral,1,exp2,match
1,0,2000,5,408.81,psychophysics,814,j,j,simultaneous,j,TRUE,坏人,img/S_ambi40.png,square,Bad,1,exp2,match
1,0,2000,5,408.81,psychophysics,577,j,j,simultaneous,j,TRUE,好人,img/C_ambi40.png,circle,Good,1,exp2,match
1,0,2000,5,408.81,psychophysics,745,f,f,simultaneous,f,TRUE,坏人,img/C_ambi40.png,circle,Bad,1,exp2,mismatch
1,0,2000,5,408.81,psychophysics,802,f,f,simultaneous,f,TRUE,好人,img/S_ambi40.png,square,Good,1,exp2,mismatch
1,0,2000,5,408.81,psychophysics,721,j,j,simultaneous,j,TRUE,好人,img/C_ambi40.png,circle,Good,1,exp2,match
1,0,2000,5,408.81,psychophysics,893,f,f,simultaneous,f,TRUE,常人,img/C_ambi40.png,circle,Neutral,1,exp2,mismatch
1,0,2000,5,408.81,psychophysics,630,j,j,simultaneous,j,TRUE,常人,img/T_ambi40.png,triangle,Neutral,1,exp2,match
1,0,2000,5,408.81,psychophysics,786,f,f,simultaneous,f,TRUE,好人,img/T_ambi40.png,triangle,Good,1,exp2,mismatch
1,0,2000,5,408.81,psychophysics,681,j,j,simultaneous,j,TRUE,坏人,img/S_ambi40.png,square,Bad,1,exp2,match
1,0,2000,5,408.81,psychophysics,773,f,f,simultaneous,f,TRUE,坏人,img/T_ambi40.png,triangle,Bad,1,exp2,mismatch
1,0,2000,5,408.81,psychophysics,635,j,j,simultaneous,j,TRUE,常人,img/T_ambi40.png,triangle,Neutral,1,exp2,match
1,0,2000,5,408.81,psychophysics,714,f,f,simultaneous,f,TRUE,常人,img/S_ambi40.png,square,Neutral,1,exp2,mismatch
1,0,2000,5,408.81,psychophysics,748,f,f,simultaneous,f,TRUE,常人,img/C_ambi40.png,circle,Neutral,1,exp2,mismatch
1,0,2000,5,408.81,psychophysics,806,f,f,simultaneous,f,TRUE,坏人,img/C_ambi40.png,circle,Bad,1,exp2,mismatch
1,0,2000,5,408.81,psychophysics,652,j,j,simultaneous,j,TRUE,好人,img/C_ambi40.png,circle,Good,1,exp2,match
1,0,2000,5,408.81,psychophysics,711,f,f,simultaneous,f,TRUE,坏人,img/T_ambi40.png,triangle,Bad,1,exp2,mismatch
1,0,2000,5,408.81,psychophysics,743,j,j,simultaneous,j,TRUE,常人,img/T_ambi40.png,triangle,Neutral,1,exp2,match
1,0,2000,5,408.81,psychophysics,648,j,j,simultaneous,j,TRUE,好人,img/C_ambi40.png,circle,Good,1,exp2,match
1,0,2000,5,408.81,psychophysics,692,f,f,simultaneous,f,TRUE,好人,img/T_ambi40.png,triangle,Good,1,exp2,mismatch
1,0,2000,5,408.81,psychophysics,665,j,j,simultaneous,j,TRUE,坏人,img/S_ambi40.png,square,Bad,1,exp2,match
1,0,2000,5,408.81,psychophysics,651,f,f,simultaneous,f,TRUE,好人,img/S_ambi40.png,square,Good,1,exp2,mismatch
1,0,2000,5,408.81,psychophysics,610,j,j,simultaneous,j,TRUE,坏人,img/S_ambi40.png,square,Bad,1,exp2,match
1,0,2000,5,408.81,psychophysics,827,f,f,simultaneous,f,TRUE,坏人,img/T_ambi40.png,triangle,Bad,1,exp2,mismatch
1,0,2000,5,408.81,psychophysics,822,f,f,simultaneous,f,TRUE,常人,img/S_ambi40.png,square,Neutral,1,exp2,mismatch
1,0,2000,5,408.81,psychophysics,628,j,j,simultaneous,j,TRUE,好人,img/C_ambi40.png,circle,Good,1,exp2,match
1,0,2000,5,408.81,psychophysics,993,f,f,simultaneous,f,TRUE,常人,img/C_ambi40.png,circle,Neutral,1,exp2,mismatch
1,0,2000,5,408.81,psychophysics,625,j,j,simultaneous,j,TRUE,常人,img/T_ambi40.png,triangle,Neutral,1,exp2,match
1,0,2000,5,408.81,psychophysics,778,f,f,simultaneous,f,TRUE,坏人,img/C_ambi40.png,circle,Bad,1,exp2,mismatch
1,0,2000,5,408.81,psychophysics,739,f,f,simultaneous,f,TRUE,好人,img/T_ambi40.png,triangle,Good,1,exp2,mismatch
1,0,2000,5,408.81,psychophysics,645,j,j,simultaneous,j,TRUE,好人,img/C_ambi40.png,circle,Good,1,exp2,match
1,0,2000,5,408.81,psychophysics,771,j,j,simultaneous,j,TRUE,坏人,img/S_ambi40.png,square,Bad,1,exp2,match
1,0,2000,5,408.81,psychophysics,712,j,j,simultaneous,j,TRUE,常人,img/T_ambi40.png,triangle,Neutral,1,exp2,match
1,0,2000,5,408.81,psychophysics,767,f,f,simultaneous,f,TRUE,好人,img/S_ambi40.png,square,Good,1,exp2,mismatch
1,0,2000,5,408.81,psychophysics,742,f,f,simultaneous,f,TRUE,常人,img/S_ambi40.png,square,Neutral,1,exp2,mismatch
1,0,2000,5,408.81,psychophysics,806,f,f,simultaneous,f,TRUE,常人,img/C_ambi40.png,circle,Neutral,1,exp2,mismatch
1,0,2000,5,408.81,psychophysics,689,f,f,simultaneous,f,TRUE,好人,img/T_ambi40.png,triangle,Good,1,exp2,mismatch
1,0,2000,5,408.81,psychophysics,622,j,j,simultaneous,j,TRUE,坏人,img/S_ambi40.png,square,Bad,1,exp2,match
1,0,2000,5,408.81,psychophysics,668,f,f,simultaneous,f,TRUE,坏人,img/C_ambi40.png,circle,Bad,1,exp2,mismatch
1,0,2000,5,408.81,psychophysics,642,j,j,simultaneous,j,TRUE,常人,img/T_ambi40.png,triangle,Neutral,1,exp2,match
1,0,2000,5,408.81,psychophysics,627,j,j,simultaneous,j,TRUE,好人,img/C_ambi40.png,circle,Good,1,exp2,match
1,0,2000,5,408.81,psychophysics,749,j,j,simultaneous,j,TRUE,常人,img/T_ambi40.png,triangle,Neutral,1,exp2,match
1,0,2000,5,408.81,psychophysics,612,j,j,simultaneous,j,TRUE,好人,img/C_ambi40.png,circle,Good,1,exp2,match
1,0,2000,5,408.81,psychophysics,746,f,f,simultaneous,f,TRUE,好人,img/S_ambi40.png,square,Good,1,exp2,mismatch
1,0,2000,5,408.81,psychophysics,792,f,f,simultaneous,f,TRUE,坏人,img/T_ambi40.png,triangle,Bad,1,exp2,mismatch
1,0,2000,5,408.81,psychophysics,702,j,j,simultaneous,j,TRUE,坏人,img/S_ambi40.png,square,Bad,1,exp2,match
1,0,2000,5,408.81,psychophysics,668,j,j,simultaneous,j,TRUE,常人,img/T_ambi40.png,triangle,Neutral,1,exp2,match
1,0,2000,5,408.81,psychophysics,732,f,f,simultaneous,f,TRUE,好人,img/T_ambi40.png,triangle,Good,1,exp2,mismatch
1,0,2000,5,408.81,psychophysics,862,f,f,simultaneous,f,TRUE,坏人,img/T_ambi40.png,triangle,Bad,1,exp2,mismatch
1,0,2000,5,408.81,psychophysics,793,f,f,simultaneous,f,TRUE,坏人,img/C_ambi40.png,circle,Bad,1,exp2,mismatch
1,0,2000,5,408.81,psychophysics,585,j,j,simultaneous,j,TRUE,好人,img/C_ambi40.png,circle,Good,1,exp2,match
1,0,2000,5,408.81,psychophysics,776,f,f,simultaneous,f,TRUE,好人,img/S_ambi40.png,square,Good,1,exp2,mismatch
1,0,2000,5,408.81,psychophysics,631,j,j,simultaneous,j,TRUE,坏人,img/S_ambi40.png,square,Bad,1,exp2,match
1,0,2000,5,408.81,psychophysics,1066,f,f,simultaneous,f,TRUE,常人,img/C_ambi40.png,circle,Neutral,1,exp2,mismatch
1,0,2000,5,408.81,psychophysics,666,j,j,simultaneous,j,TRUE,好人,img/C_ambi40.png,circle,Good,1,exp2,match
1,0,2000,5,408.81,psychophysics,648,j,j,simultaneous,j,TRUE,坏人,img/S_ambi40.png,square,Bad,1,exp2,match
1,0,2000,5,408.81,psychophysics,732,j,j,simultaneous,j,TRUE,常人,img/T_ambi40.png,triangle,Neutral,1,exp2,match
1,0,2000,5,408.81,psychophysics,684,f,f,simultaneous,f,TRUE,常人,img/S_ambi40.png,square,Neutral,1,exp2,mismatch
1,0,2000,5,408.81,psychophysics,573,j,j,simultaneous,j,TRUE,好人,img/C_ambi40.png,circle,Good,1,exp2,match
1,0,2000,5,408.81,psychophysics,758,f,f,simultaneous,f,TRUE,好人,img/T_ambi40.png,triangle,Good,1,exp2,mismatch
1,0,2000,5,408.81,psychophysics,669,j,j,simultaneous,j,TRUE,坏人,img/S_ambi40.png,square,Bad,1,exp2,match
1,0,2000,5,408.81,psychophysics,652,j,j,simultaneous,j,TRUE,好人,img/C_ambi40.png,circle,Good,1,exp2,match
1,0,2000,5,408.81,psychophysics,625,j,j,simultaneous,j,TRUE,常人,img/T_ambi40.png,triangle,Neutral,1,exp2,match
1,0,2000,5,408.81,psychophysics,671,f,f,simultaneous,f,TRUE,好人,img/S_ambi40.png,square,Good,1,exp2,mismatch
1,0,2000,5,408.81,psychophysics,888,f,f,simultaneous,f,TRUE,常人,img/C_ambi40.png,circle,Neutral,1,exp2,mismatch
1,0,2000,5,408.81,psychophysics,730,f,f,simultaneous,f,TRUE,坏人,img/C_ambi40.png,circle,Bad,1,exp2,mismatch
1,0,2000,5,408.81,psychophysics,619,f,f,simultaneous,f,TRUE,坏人,img/T_ambi40.png,triangle,Bad,1,exp2,mismatch
1,0,2000,5,408.81,psychophysics,646,j,j,simultaneous,j,TRUE,常人,img/T_ambi40.png,triangle,Neutral,1,exp2,match
1,0,2000,5,408.81,psychophysics,717,f,f,simultaneous,f,TRUE,常人,img/S_ambi40.png,square,Neutral,1,exp2,mismatch
1,0,2000,5,408.81,psychophysics,655,j,j,simultaneous,j,TRUE,坏人,img/S_ambi40.png,square,Bad,1,exp2,match
1,0,2000,5,408.81,psychophysics,811,f,f,simultaneous,f,TRUE,常人,img/S_ambi40.png,square,Neutral,1,exp2,mismatch
1,0,2000,5,408.81,psychophysics,615,j,j,simultaneous,j,TRUE,好人,img/C_ambi40.png,circle,Good,1,exp2,match
1,0,2000,5,408.81,psychophysics,738,f,f,simultaneous,f,TRUE,坏人,img/C_ambi40.png,circle,Bad,1,exp2,mismatch
1,0,2000,5,408.81,psychophysics,618,j,j,simultaneous,j,TRUE,常人,img/T_ambi40.png,triangle,Neutral,1,exp2,match
1,0,2000,5,408.81,psychophysics,681,j,j,simultaneous,j,TRUE,常人,img/T_ambi40.png,triangle,Neutral,1,exp2,match
1,0,2000,5,408.81,psychophysics,686,j,j,simultaneous,j,TRUE,坏人,img/S_ambi40.png,square,Bad,1,exp2,match
1,0,2000,5,408.81,psychophysics,788,f,f,simultaneous,f,TRUE,好人,img/T_ambi40.png,triangle,Good,1,exp2,mismatch
1,0,2000,5,408.81,psychophysics,587,j,j,simultaneous,j,TRUE,好人,img/C_ambi40.png,circle,Good,1,exp2,match
1,0,2000,5,408.81,psychophysics,678,f,f,simultaneous,f,TRUE,好人,img/S_ambi40.png,square,Good,1,exp2,mismatch
1,0,2000,5,408.81,psychophysics,817,f,f,simultaneous,f,TRUE,常人,img/C_ambi40.png,circle,Neutral,1,exp2,mismatch
1,0,2000,5,408.81,psychophysics,893,f,f,simultaneous,f,TRUE,坏人,img/T_ambi40.png,triangle,Bad,1,exp2,mismatch
1,0,2000,5,408.81,psychophysics,688,j,j,simultaneous,j,TRUE,坏人,img/S_ambi40.png,square,Bad,1,exp2,match
1,0,2000,5,408.81,psychophysics,608,j,j,simultaneous,j,TRUE,坏人,img/S_ambi40.png,square,Bad,1,exp2,match
1,0,2000,5,408.81,psychophysics,711,f,f,simultaneous,f,TRUE,好人,img/S_ambi40.png,square,Good,1,exp2,mismatch
1,0,2000,5,408.81,psychophysics,647,j,j,simultaneous,j,TRUE,坏人,img/S_ambi40.png,square,Bad,1,exp2,match
1,0,2000,5,408.81,psychophysics,887,f,f,simultaneous,f,TRUE,坏人,img/C_ambi40.png,circle,Bad,1,exp2,mismatch
1,0,2000,5,408.81,psychophysics,750,j,j,simultaneous,j,TRUE,常人,img/T_ambi40.png,triangle,Neutral,1,exp2,match
1,0,2000,5,408.81,psychophysics,777,f,f,simultaneous,f,TRUE,常人,img/C_ambi40.png,circle,Neutral,1,exp2,mismatch
1,0,2000,5,408.81,psychophysics,609,j,j,simultaneous,j,TRUE,好人,img/C_ambi40.png,circle,Good,1,exp2,match
1,0,2000,5,408.81,psychophysics,745,f,f,simultaneous,f,TRUE,坏人,img/T_ambi40.png,triangle,Bad,1,exp2,mismatch
1,0,2000,5,408.81,psychophysics,559,j,j,simultaneous,j,TRUE,好人,img/C_ambi40.png,circle,Good,1,exp2,match
1,0,2000,5,408.81,psychophysics,786,f,f,simultaneous,f,TRUE,常人,img/S_ambi40.png,square,Neutral,1,exp2,mismatch
1,0,2000,5,408.81,psychophysics,765,j,j,simultaneous,j,TRUE,常人,img/T_ambi40.png,triangle,Neutral,1,exp2,match
1,0,2000,5,408.81,psychophysics,720,f,f,simultaneous,f,TRUE,好人,img/T_ambi40.png,triangle,Good,1,exp2,mismatch
1,0,2000,5,408.81,psychophysics,823,f,f,simultaneous,f,TRUE,坏人,img/T_ambi40.png,triangle,Bad,1,exp2,mismatch
1,0,2000,5,408.81,psychophysics,690,j,j,simultaneous,j,TRUE,常人,img/T_ambi40.png,triangle,Neutral,1,exp2,match
1,0,2000,5,408.81,psychophysics,581,j,j,simultaneous,j,TRUE,常人,img/T_ambi40.png,triangle,Neutral,1,exp2,match
1,0,2000,5,408.81,psychophysics,757,j,j,simultaneous,j,TRUE,坏人,img/S_ambi40.png,square,Bad,1,exp2,match
1,0,2000,5,408.81,psychophysics,707,f,f,simultaneous,f,TRUE,常人,img/S_ambi40.png,square,Neutral,1,exp2,mismatch
1,0,2000,5,408.81,psychophysics,642,j,j,simultaneous,j,TRUE,好人,img/C_ambi40.png,circle,Good,1,exp2,match
1,0,2000,5,408.81,psychophysics,575,j,j,simultaneous,j,TRUE,好人,img/C_ambi40.png,circle,Good,1,exp2,match
1,0,2000,5,408.81,psychophysics,677,j,j,simultaneous,j,TRUE,坏人,img/S_ambi40.png,square,Bad,1,exp2,match
1,0,2000,5,408.81,psychophysics,736,f,f,simultaneous,f,TRUE,好人,img/S_ambi40.png,square,Good,1,exp2,mismatch
1,0,2000,5,408.81,psychophysics,727,f,f,simultaneous,f,TRUE,常人,img/C_ambi40.png,circle,Neutral,1,exp2,mismatch
1,0,2000,5,408.81,psychophysics,690,f,f,simultaneous,f,TRUE,好人,img/T_ambi40.png,triangle,Good,1,exp2,mismatch
1,0,2000,5,408.81,psychophysics,876,f,f,simultaneous,f,TRUE,坏人,img/C_ambi40.png,circle,Bad,1,exp2,mismatch
1,0,2000,5,408.81,psychophysics,639,j,j,simultaneous,j,TRUE,常人,img/T_ambi40.png,triangle,Neutral,1,exp2,match
1,0,2000,5,408.81,psychophysics,719,f,f,simultaneous,f,TRUE,坏人,img/C_ambi40.png,circle,Bad,1,exp2,mismatch
1,0,2000,5,408.81,psychophysics,747,f,f,simultaneous,f,TRUE,好人,img/S_ambi40.png,square,Good,1,exp2,mismatch
1,0,2000,5,408.81,psychophysics,615,j,j,simultaneous,j,TRUE,常人,img/T_ambi40.png,triangle,Neutral,1,exp2,match
1,0,2000,5,408.81,psychophysics,662,j,j,simultaneous,j,TRUE,坏人,img/S_ambi40.png,square,Bad,1,exp2,match
1,0,2000,5,408.81,psychophysics,737,j,j,simultaneous,j,TRUE,坏人,img/S_ambi40.png,square,Bad,1,exp2,match
1,0,2000,5,408.81,psychophysics,575,j,j,simultaneous,j,TRUE,好人,img/C_ambi40.png,circle,Good,1,exp2,match
1,0,2000,5,408.81,psychophysics,820,f,f,simultaneous,f,TRUE,常人,img/S_ambi40.png,square,Neutral,1,exp2,mismatch
1,0,2000,5,408.81,psychophysics,673,f,f,simultaneous,f,TRUE,好人,img/T_ambi40.png,triangle,Good,1,exp2,mismatch
1,0,2000,5,408.81,psychophysics,708,f,f,simultaneous,f,TRUE,常人,img/C_ambi40.png,circle,Neutral,1,exp2,mismatch
1,0,2000,5,408.81,psychophysics,696,f,f,simultaneous,f,TRUE,坏人,img/T_ambi40.png,triangle,Bad,1,exp2,mismatch
1,0,2000,5,408.81,psychophysics,577,j,j,simultaneous,j,TRUE,好人,img/C_ambi40.png,circle,Good,1,exp2,match
1,0,2000,5,408.81,psychophysics,691,f,f,simultaneous,f,TRUE,坏人,img/C_ambi40.png,circle,Bad,1,exp2,mismatch
1,0,2000,5,408.81,psychophysics,898,f,f,simultaneous,f,TRUE,坏人,img/T_ambi40.png,triangle,Bad,1,exp2,mismatch
1,0,2000,5,408.81,psychophysics,675,j,j,simultaneous,j,TRUE,常人,img/T_ambi40.png,triangle,Neutral,1,exp2,match
1,0,2000,5,408.81,psychophysics,671,j,j,simultaneous,j,TRUE,常人,img/T_ambi40.png,triangle,Neutral,1,exp2,match
1,0,2000,5,408.81,psychophysics,721,f,f,simultaneous,f,TRUE,好人,img/T_ambi40.png,triangle,Good,1,exp2,mismatch
1,0,2000,5,408.81,psychophysics,750,f,f,simultaneous,f,TRUE,常人,img/S_ambi40.png,square,Neutral,1,exp2,mismatch
1,0,2000,5,408.81,psychophysics,724,f,f,simultaneous,f,TRUE,常人,img/C_ambi40.png,circle,Neutral,1,exp2,mismatch
1,0,2000,5,408.81,psychophysics,689,j,j,simultaneous,j,TRUE,坏人,img/S_ambi40.png,square,Bad,1,exp2,match
1,0,2000,5,408.81,psychophysics,726,j,j,simultaneous,j,TRUE,坏人,img/S_ambi40.png,square,Bad,1,exp2,match
1,0,2000,5,408.81,psychophysics,641,j,j,simultaneous,j,TRUE,好人,img/C_ambi40.png,circle,Good,1,exp2,match
1,0,2000,5,408.81,psychophysics,695,f,f,simultaneous,f,TRUE,好人,img/S_ambi40.png,square,Good,1,exp2,mismatch
1,0,2000,5,408.81,psychophysics,658,j,j,simultaneous,j,TRUE,好人,img/C_ambi40.png,circle,Good,1,exp2,match
1,0,2000,5,408.81,psychophysics,729,j,j,simultaneous,j,TRUE,坏人,img/S_ambi40.png,square,Bad,1,exp2,match
1,0,2000,5,408.81,psychophysics,647,f,f,simultaneous,f,TRUE,坏人,img/C_ambi40.png,circle,Bad,1,exp2,mismatch
1,0,2000,5,408.81,psychophysics,604,j,j,simultaneous,j,TRUE,常人,img/T_ambi40.png,triangle,Neutral,1,exp2,match
1,0,2000,5,408.81,psychophysics,612,j,j,simultaneous,j,TRUE,坏人,img/S_ambi40.png,square,Bad,1,exp2,match
1,0,2000,5,408.81,psychophysics,612,j,j,simultaneous,j,TRUE,常人,img/T_ambi40.png,triangle,Neutral,1,exp2,match
1,0,2000,5,408.81,psychophysics,786,f,f,simultaneous,f,TRUE,常人,img/C_ambi40.png,circle,Neutral,1,exp2,mismatch
1,0,2000,5,408.81,psychophysics,602,j,j,simultaneous,j,TRUE,好人,img/C_ambi40.png,circle,Good,1,exp2,match
1,0,2000,5,408.81,psychophysics,736,f,f,simultaneous,f,TRUE,好人,img/T_ambi40.png,triangle,Good,1,exp2,mismatch
1,0,2000,5,408.81,psychophysics,730,f,f,simultaneous,f,TRUE,常人,img/S_ambi40.png,square,Neutral,1,exp2,mismatch
1,0,2000,5,408.81,psychophysics,701,f,f,simultaneous,f,TRUE,好人,img/S_ambi40.png,square,Good,1,exp2,mismatch
1,0,2000,5,408.81,psychophysics,685,f,f,simultaneous,f,TRUE,坏人,img/T_ambi40.png,triangle,Bad,1,exp2,mismatch
1,0,2000,5,408.81,psychophysics,727,f,f,simultaneous,f,TRUE,常人,img/S_ambi40.png,square,Neutral,1,exp2,mismatch
1,0,2000,5,408.81,psychophysics,752,f,f,simultaneous,f,TRUE,坏人,img/C_ambi40.png,circle,Bad,1,exp2,mismatch
1,0,2000,5,408.81,psychophysics,736,j,j,simultaneous,j,TRUE,坏人,img/S_ambi40.png,square,Bad,1,exp2,match
1,0,2000,5,408.81,psychophysics,642,j,j,simultaneous,j,TRUE,常人,img/T_ambi40.png,triangle,Neutral,1,exp2,match
1,0,2000,5,408.81,psychophysics,661,f,f,simultaneous,f,TRUE,好人,img/T_ambi40.png,triangle,Good,1,exp2,mismatch
1,0,2000,5,408.81,psychophysics,650,j,j,simultaneous,j,TRUE,常人,img/T_ambi40.png,triangle,Neutral,1,exp2,match
1,0,2000,5,408.81,psychophysics,609,j,j,simultaneous,j,TRUE,坏人,img/S_ambi40.png,square,Bad,1,exp2,match
1,0,2000,5,408.81,psychophysics,717,f,f,simultaneous,f,TRUE,常人,img/C_ambi40.png,circle,Neutral,1,exp2,mismatch
1,0,2000,5,408.81,psychophysics,759,j,j,simultaneous,j,TRUE,好人,img/C_ambi40.png,circle,Good,1,exp2,match
1,0,2000,5,408.81,psychophysics,808,f,f,simultaneous,f,TRUE,坏人,img/T_ambi40.png,triangle,Bad,1,exp2,mismatch
1,0,2000,5,408.81,psychophysics,581,j,j,simultaneous,j,TRUE,好人,img/C_ambi40.png,circle,Good,1,exp2,match
1,0,2000,5,408.81,psychophysics,718,f,f,simultaneous,f,TRUE,好人,img/S_ambi40.png,square,Good,1,exp2,mismatch
1,0,2000,5,408.81,psychophysics,637,j,j,simultaneous,j,TRUE,坏人,img/S_ambi40.png,square,Bad,1,exp2,match
1,0,2000,5,408.81,psychophysics,612,j,j,simultaneous,j,TRUE,坏人,img/S_ambi40.png,square,Bad,1,exp2,match
1,0,2000,5,408.81,psychophysics,686,f,f,simultaneous,f,TRUE,好人,img/S_ambi40.png,square,Good,1,exp2,mismatch
1,0,2000,5,408.81,psychophysics,779,f,f,simultaneous,f,TRUE,坏人,img/T_ambi40.png,triangle,Bad,1,exp2,mismatch
1,0,2000,5,408.81,psychophysics,639,j,j,simultaneous,j,TRUE,好人,img/C_ambi40.png,circle,Good,1,exp2,match
1,0,2000,5,408.81,psychophysics,845,f,f,simultaneous,f,TRUE,好人,img/T_ambi40.png,triangle,Good,1,exp2,mismatch
1,0,2000,5,408.81,psychophysics,710,f,f,simultaneous,f,TRUE,常人,img/C_ambi40.png,circle,Neutral,1,exp2,mismatch
1,0,2000,5,408.81,psychophysics,642,j,j,simultaneous,j,TRUE,常人,img/T_ambi40.png,triangle,Neutral,1,exp2,match
1,0,2000,5,408.81,psychophysics,651,f,f,simultaneous,f,TRUE,坏人,img/C_ambi40.png,circle,Bad,1,exp2,mismatch
1,0,2000,5,408.81,psychophysics,725,f,f,simultaneous,f,TRUE,常人,img/S_ambi40.png,square,Neutral,1,exp2,mismatch
1,0,2000,5,408.81,psychophysics,617,j,j,simultaneous,j,TRUE,好人,img/C_ambi40.png,circle,Good,1,exp2,match
1,0,2000,5,408.81,psychophysics,687,j,j,simultaneous,j,TRUE,常人,img/T_ambi40.png,triangle,Neutral,1,exp2,match
10,1,2000,5,479.38,psychophysics,1418,f,f,image_first,f,TRUE,好人,img/S_ambi40.png,square,Good,1,exp2,match
10,1,2000,5,479.38,psychophysics,582,f,f,image_first,f,TRUE,好人,img/S_ambi40.png,square,Good,1,exp2,match
10,1,2000,5,479.38,psychophysics,553,j,j,image_first,j,TRUE,常人,img/S_ambi40.png,square,Neutral,1,exp2,mismatch
10,1,2000,5,479.38,psychophysics,906,j,j,image_first,j,TRUE,好人,img/T_ambi40.png,triangle,Good,1,exp2,mismatch
10,1,2000,5,479.38,psychophysics,652,j,j,image_first,j,TRUE,好人,img/C_ambi40.png,circle,Good,1,exp2,mismatch
10,1,2000,5,479.38,psychophysics,699,f,f,image_first,f,TRUE,常人,img/T_ambi40.png,triangle,Neutral,1,exp2,match
10,1,2000,5,479.38,psychophysics,592,j,j,image_first,j,TRUE,坏人,img/T_ambi40.png,triangle,Bad,1,exp2,mismatch
10,1,2000,5,479.38,psychophysics,537,f,f,image_first,f,TRUE,坏人,img/C_ambi40.png,circle,Bad,1,exp2,match
10,1,2000,5,479.38,psychophysics,577,f,f,image_first,f,TRUE,常人,img/T_ambi40.png,triangle,Neutral,1,exp2,match
10,1,2000,5,479.38,psychophysics,770,j,j,image_first,j,TRUE,常人,img/C_ambi40.png,circle,Neutral,1,exp2,mismatch
10,1,2000,5,479.38,psychophysics,910,f,f,image_first,f,TRUE,坏人,img/C_ambi40.png,circle,Bad,1,exp2,match
10,1,2000,5,479.38,psychophysics,714,j,j,image_first,j,TRUE,坏人,img/S_ambi40.png,square,Bad,1,exp2,mismatch
10,1,2000,5,479.38,psychophysics,777,j,j,image_first,j,TRUE,常人,img/C_ambi40.png,circle,Neutral,1,exp2,mismatch
10,1,2000,5,479.38,psychophysics,834,j,j,image_first,j,TRUE,好人,img/C_ambi40.png,circle,Good,1,exp2,mismatch
10,1,2000,5,479.38,psychophysics,656,f,f,image_first,f,TRUE,坏人,img/C_ambi40.png,circle,Bad,1,exp2,match
10,1,2000,5,479.38,psychophysics,595,f,f,image_first,f,TRUE,好人,img/S_ambi40.png,square,Good,1,exp2,match
10,1,2000,5,479.38,psychophysics,440,f,f,image_first,f,TRUE,常人,img/T_ambi40.png,triangle,Neutral,1,exp2,match
10,1,2000,5,479.38,psychophysics,692,f,f,image_first,f,TRUE,常人,img/T_ambi40.png,triangle,Neutral,1,exp2,match
10,1,2000,5,479.38,psychophysics,689,j,j,image_first,j,TRUE,常人,img/S_ambi40.png,square,Neutral,1,exp2,mismatch
10,1,2000,5,479.38,psychophysics,680,j,j,image_first,j,TRUE,坏人,img/T_ambi40.png,triangle,Bad,1,exp2,mismatch
10,1,2000,5,479.38,psychophysics,779,f,f,image_first,f,TRUE,好人,img/S_ambi40.png,square,Good,1,exp2,match
10,1,2000,5,479.38,psychophysics,750,j,j,image_first,j,TRUE,好人,img/T_ambi40.png,triangle,Good,1,exp2,mismatch
10,1,2000,5,479.38,psychophysics,919,j,j,image_first,j,TRUE,好人,img/T_ambi40.png,triangle,Good,1,exp2,mismatch
10,1,2000,5,479.38,psychophysics,866,f,f,image_first,f,TRUE,常人,img/T_ambi40.png,triangle,Neutral,1,exp2,match
10,1,2000,5,479.38,psychophysics,858,j,j,image_first,j,TRUE,常人,img/C_ambi40.png,circle,Neutral,1,exp2,mismatch
10,1,2000,5,479.38,psychophysics,1141,f,f,image_first,f,TRUE,坏人,img/C_ambi40.png,circle,Bad,1,exp2,match
10,1,2000,5,479.38,psychophysics,593,f,f,image_first,f,TRUE,坏人,img/C_ambi40.png,circle,Bad,1,exp2,match
10,1,2000,5,479.38,psychophysics,744,j,j,image_first,j,TRUE,常人,img/S_ambi40.png,square,Neutral,1,exp2,mismatch
10,1,2000,5,479.38,psychophysics,976,j,j,image_first,j,TRUE,坏人,img/S_ambi40.png,square,Bad,1,exp2,mismatch
10,1,2000,5,479.38,psychophysics,835,f,f,image_first,f,TRUE,好人,img/S_ambi40.png,square,Good,1,exp2,match
10,1,2000,5,479.38,psychophysics,651,f,f,image_first,f,TRUE,常人,img/T_ambi40.png,triangle,Neutral,1,exp2,match
10,1,2000,5,479.38,psychophysics,650,f,f,image_first,f,TRUE,好人,img/S_ambi40.png,square,Good,1,exp2,match
10,1,2000,5,479.38,psychophysics,603,j,j,image_first,j,TRUE,坏人,img/T_ambi40.png,triangle,Bad,1,exp2,mismatch
10,1,2000,5,479.38,psychophysics,654,f,f,image_first,f,TRUE,好人,img/S_ambi40.png,square,Good,1,exp2,match
10,1,2000,5,479.38,psychophysics,658,j,j,image_first,j,TRUE,常人,img/C_ambi40.png,circle,Neutral,1,exp2,mismatch
10,1,2000,5,479.38,psychophysics,726,f,f,image_first,f,TRUE,好人,img/S_ambi40.png,square,Good,1,exp2,match
10,1,2000,5,479.38,psychophysics,671,j,j,image_first,j,TRUE,常人,img/S_ambi40.png,square,Neutral,1,exp2,mismatch
10,1,2000,5,479.38,psychophysics,717,f,f,image_first,f,TRUE,常人,img/T_ambi40.png,triangle,Neutral,1,exp2,match
10,1,2000,5,479.38,psychophysics,714,j,j,image_first,j,TRUE,好人,img/T_ambi40.png,triangle,Good,1,exp2,mismatch
10,1,2000,5,479.38,psychophysics,1359,j,j,image_first,j,TRUE,坏人,img/T_ambi40.png,triangle,Bad,1,exp2,mismatch
10,1,2000,5,479.38,psychophysics,635,f,f,image_first,f,TRUE,常人,img/T_ambi40.png,triangle,Neutral,1,exp2,match
10,1,2000,5,479.38,psychophysics,783,f,f,image_first,f,TRUE,坏人,img/C_ambi40.png,circle,Bad,1,exp2,match
10,1,2000,5,479.38,psychophysics,733,f,f,image_first,f,TRUE,好人,img/S_ambi40.png,square,Good,1,exp2,match
10,1,2000,5,479.38,psychophysics,704,f,f,image_first,f,TRUE,常人,img/T_ambi40.png,triangle,Neutral,1,exp2,match
10,1,2000,5,479.38,psychophysics,648,f,f,image_first,f,TRUE,常人,img/T_ambi40.png,triangle,Neutral,1,exp2,match
10,1,2000,5,479.38,psychophysics,828,j,j,image_first,j,TRUE,常人,img/S_ambi40.png,square,Neutral,1,exp2,mismatch
10,1,2000,5,479.38,psychophysics,1256,j,j,image_first,j,TRUE,坏人,img/S_ambi40.png,square,Bad,1,exp2,mismatch
10,1,2000,5,479.38,psychophysics,629,f,f,image_first,f,TRUE,好人,img/S_ambi40.png,square,Good,1,exp2,match
10,1,2000,5,479.38,psychophysics,710,j,j,image_first,j,TRUE,常人,img/C_ambi40.png,circle,Neutral,1,exp2,mismatch
10,1,2000,5,479.38,psychophysics,1105,j,j,image_first,j,TRUE,好人,img/C_ambi40.png,circle,Good,1,exp2,mismatch
10,1,2000,5,479.38,psychophysics,961,f,f,image_first,f,TRUE,坏人,img/C_ambi40.png,circle,Bad,1,exp2,match
10,1,2000,5,479.38,psychophysics,1028,j,j,image_first,j,TRUE,好人,img/T_ambi40.png,triangle,Good,1,exp2,mismatch
10,1,2000,5,479.38,psychophysics,771,j,j,image_first,j,TRUE,坏人,img/T_ambi40.png,triangle,Bad,1,exp2,mismatch
10,1,2000,5,479.38,psychophysics,871,j,j,image_first,j,TRUE,好人,img/T_ambi40.png,triangle,Good,1,exp2,mismatch
10,1,2000,5,479.38,psychophysics,691,f,f,image_first,f,TRUE,好人,img/S_ambi40.png,square,Good,1,exp2,match
10,1,2000,5,479.38,psychophysics,515,f,f,image_first,f,TRUE,常人,img/T_ambi40.png,triangle,Neutral,1,exp2,match
10,1,2000,5,479.38,psychophysics,753,j,j,image_first,j,TRUE,常人,img/C_ambi40.png,circle,Neutral,1,exp2,mismatch
10,1,2000,5,479.38,psychophysics,606,f,f,image_first,f,TRUE,常人,img/T_ambi40.png,triangle,Neutral,1,exp2,match
10,1,2000,5,479.38,psychophysics,655,j,j,image_first,j,TRUE,常人,img/S_ambi40.png,square,Neutral,1,exp2,mismatch
10,1,2000,5,479.38,psychophysics,907,f,f,image_first,f,TRUE,坏人,img/C_ambi40.png,circle,Bad,1,exp2,match
10,1,2000,5,479.38,psychophysics,501,f,f,image_first,f,TRUE,好人,img/S_ambi40.png,square,Good,1,exp2,match
10,1,2000,5,479.38,psychophysics,598,j,j,image_first,j,TRUE,好人,img/C_ambi40.png,circle,Good,1,exp2,mismatch
10,1,2000,5,479.38,psychophysics,1100,j,j,image_first,j,TRUE,坏人,img/S_ambi40.png,square,Bad,1,exp2,mismatch
10,1,2000,5,479.38,psychophysics,747,j,j,image_first,j,TRUE,常人,img/C_ambi40.png,circle,Neutral,1,exp2,mismatch
10,1,2000,5,479.38,psychophysics,930,j,j,image_first,j,TRUE,常人,img/S_ambi40.png,square,Neutral,1,exp2,mismatch
10,1,2000,5,479.38,psychophysics,588,f,f,image_first,f,TRUE,坏人,img/C_ambi40.png,circle,Bad,1,exp2,match
10,1,2000,5,479.38,psychophysics,661,f,f,image_first,f,TRUE,常人,img/T_ambi40.png,triangle,Neutral,1,exp2,match
10,1,2000,5,479.38,psychophysics,608,f,f,image_first,f,TRUE,坏人,img/C_ambi40.png,circle,Bad,1,exp2,match
10,1,2000,5,479.38,psychophysics,632,j,j,image_first,j,TRUE,坏人,img/S_ambi40.png,square,Bad,1,exp2,mismatch
10,1,2000,5,479.38,psychophysics,647,f,f,image_first,f,TRUE,好人,img/S_ambi40.png,square,Good,1,exp2,match
10,1,2000,5,479.38,psychophysics,669,f,f,image_first,f,TRUE,常人,img/T_ambi40.png,triangle,Neutral,1,exp2,match
10,1,2000,5,479.38,psychophysics,1125,f,f,image_first,f,TRUE,好人,img/S_ambi40.png,square,Good,1,exp2,match
10,1,2000,5,479.38,psychophysics,665,j,j,image_first,j,TRUE,坏人,img/T_ambi40.png,triangle,Bad,1,exp2,mismatch
10,1,2000,5,479.38,psychophysics,922,j,j,image_first,j,TRUE,好人,img/C_ambi40.png,circle,Good,1,exp2,mismatch
10,1,2000,5,479.38,psychophysics,651,j,j,image_first,j,TRUE,好人,img/T_ambi40.png,triangle,Good,1,exp2,mismatch
10,1,2000,5,479.38,psychophysics,661,j,j,image_first,j,TRUE,坏人,img/T_ambi40.png,triangle,Bad,1,exp2,mismatch
10,1,2000,5,479.38,psychophysics,776,j,j,image_first,j,TRUE,常人,img/S_ambi40.png,square,Neutral,1,exp2,mismatch
10,1,2000,5,479.38,psychophysics,613,j,j,image_first,j,TRUE,好人,img/T_ambi40.png,triangle,Good,1,exp2,mismatch
10,1,2000,5,479.38,psychophysics,902,j,j,image_first,j,TRUE,坏人,img/S_ambi40.png,square,Bad,1,exp2,mismatch
10,1,2000,5,479.38,psychophysics,931,f,f,image_first,f,TRUE,坏人,img/C_ambi40.png,circle,Bad,1,exp2,match
10,1,2000,5,479.38,psychophysics,707,f,f,image_first,f,TRUE,好人,img/S_ambi40.png,square,Good,1,exp2,match
10,1,2000,5,479.38,psychophysics,423,f,f,image_first,f,TRUE,常人,img/T_ambi40.png,triangle,Neutral,1,exp2,match
10,1,2000,5,479.38,psychophysics,697,f,f,image_first,f,TRUE,好人,img/S_ambi40.png,square,Good,1,exp2,match
10,1,2000,5,479.38,psychophysics,452,f,f,image_first,f,TRUE,坏人,img/C_ambi40.png,circle,Bad,1,exp2,match
10,1,2000,5,479.38,psychophysics,609,j,j,image_first,j,TRUE,常人,img/C_ambi40.png,circle,Neutral,1,exp2,mismatch
10,1,2000,5,479.38,psychophysics,762,j,j,image_first,j,TRUE,好人,img/C_ambi40.png,circle,Good,1,exp2,mismatch
10,1,2000,5,479.38,psychophysics,490,f,f,image_first,f,TRUE,常人,img/T_ambi40.png,triangle,Neutral,1,exp2,match
10,1,2000,5,479.38,psychophysics,633,j,j,image_first,j,TRUE,常人,img/C_ambi40.png,circle,Neutral,1,exp2,mismatch
10,1,2000,5,479.38,psychophysics,664,j,j,image_first,j,TRUE,好人,img/T_ambi40.png,triangle,Good,1,exp2,mismatch
10,1,2000,5,479.38,psychophysics,1175,j,j,image_first,j,TRUE,坏人,img/S_ambi40.png,square,Bad,1,exp2,mismatch
10,1,2000,5,479.38,psychophysics,701,f,f,image_first,f,TRUE,常人,img/T_ambi40.png,triangle,Neutral,1,exp2,match
10,1,2000,5,479.38,psychophysics,778,f,f,image_first,f,TRUE,坏人,img/C_ambi40.png,circle,Bad,1,exp2,match
10,1,2000,5,479.38,psychophysics,681,f,f,image_first,f,TRUE,好人,img/S_ambi40.png,square,Good,1,exp2,match
10,1,2000,5,479.38,psychophysics,911,j,j,image_first,j,TRUE,坏人,img/T_ambi40.png,triangle,Bad,1,exp2,mismatch
10,1,2000,5,479.38,psychophysics,929,f,f,image_first,f,TRUE,坏人,img/C_ambi40.png,circle,Bad,1,exp2,match
10,1,2000,5,479.38,psychophysics,646,f,f,image_first,f,TRUE,好人,img/S_ambi40.png,square,Good,1,exp2,match
10,1,2000,5,479.38,psychophysics,1174,j,j,image_first,j,TRUE,好人,img/C_ambi40.png,circle,Good,1,exp2,mismatch
10,1,2000,5,479.38,psychophysics,630,f,f,image_first,f,TRUE,常人,img/T_ambi40.png,triangle,Neutral,1,exp2,match
10,1,2000,5,479.38,psychophysics,753,j,j,image_first,j,TRUE,常人,img/S_ambi40.png,square,Neutral,1,exp2,mismatch
10,1,2000,5,479.38,psychophysics,1315,f,f,image_first,f,TRUE,好人,img/S_ambi40.png,square,Good,1,exp2,match
10,1,2000,5,479.38,psychophysics,502,f,f,image_first,f,TRUE,好人,img/S_ambi40.png,square,Good,1,exp2,match
10,1,2000,5,479.38,psychophysics,514,f,f,image_first,f,TRUE,坏人,img/C_ambi40.png,circle,Bad,1,exp2,match
10,1,2000,5,479.38,psychophysics,698,j,j,image_first,j,TRUE,常人,img/S_ambi40.png,square,Neutral,1,exp2,mismatch
10,1,2000,5,479.38,psychophysics,766,j,j,image_first,j,TRUE,坏人,img/S_ambi40.png,square,Bad,1,exp2,mismatch
10,1,2000,5,479.38,psychophysics,737,j,j,image_first,j,TRUE,坏人,img/T_ambi40.png,triangle,Bad,1,exp2,mismatch
10,1,2000,5,479.38,psychophysics,812,f,f,image_first,f,TRUE,坏人,img/C_ambi40.png,circle,Bad,1,exp2,match
10,1,2000,5,479.38,psychophysics,611,f,f,image_first,f,TRUE,常人,img/T_ambi40.png,triangle,Neutral,1,exp2,match
10,1,2000,5,479.38,psychophysics,593,f,f,image_first,f,TRUE,常人,img/T_ambi40.png,triangle,Neutral,1,exp2,match
10,1,2000,5,479.38,psychophysics,587,j,j,image_first,j,TRUE,好人,img/T_ambi40.png,triangle,Good,1,exp2,mismatch
10,1,2000,5,479.38,psychophysics,1053,j,j,image_first,j,TRUE,常人,img/C_ambi40.png,circle,Neutral,1,exp2,mismatch
10,1,2000,5,479.38,psychophysics,814,f,f,image_first,f,TRUE,常人,img/T_ambi40.png,triangle,Neutral,1,exp2,match
10,1,2000,5,479.38,psychophysics,687,f,f,image_first,f,TRUE,好人,img/S_ambi40.png,square,Good,1,exp2,match
10,1,2000,5,479.38,psychophysics,610,f,f,image_first,f,TRUE,坏人,img/C_ambi40.png,circle,Bad,1,exp2,match
10,1,2000,5,479.38,psychophysics,772,j,j,image_first,j,TRUE,坏人,img/S_ambi40.png,square,Bad,1,exp2,mismatch
10,1,2000,5,479.38,psychophysics,555,f,f,image_first,f,TRUE,常人,img/T_ambi40.png,triangle,Neutral,1,exp2,match
10,1,2000,5,479.38,psychophysics,617,f,f,image_first,f,TRUE,好人,img/S_ambi40.png,square,Good,1,exp2,match
10,1,2000,5,479.38,psychophysics,396,f,f,image_first,f,TRUE,坏人,img/C_ambi40.png,circle,Bad,1,exp2,match
10,1,2000,5,479.38,psychophysics,635,j,j,image_first,j,TRUE,常人,img/C_ambi40.png,circle,Neutral,1,exp2,mismatch
10,1,2000,5,479.38,psychophysics,1089,j,j,image_first,j,TRUE,坏人,img/T_ambi40.png,triangle,Bad,1,exp2,mismatch
10,1,2000,5,479.38,psychophysics,807,j,j,image_first,j,TRUE,好人,img/C_ambi40.png,circle,Good,1,exp2,mismatch
10,1,2000,5,479.38,psychophysics,576,j,j,image_first,j,TRUE,好人,img/T_ambi40.png,triangle,Good,1,exp2,mismatch
10,1,2000,5,479.38,psychophysics,549,j,j,image_first,j,TRUE,好人,img/C_ambi40.png,circle,Good,1,exp2,mismatch
10,1,2000,5,479.38,psychophysics,695,j,j,image_first,j,TRUE,坏人,img/S_ambi40.png,square,Bad,1,exp2,mismatch
10,1,2000,5,479.38,psychophysics,572,f,f,image_first,f,TRUE,坏人,img/C_ambi40.png,circle,Bad,1,exp2,match
10,1,2000,5,479.38,psychophysics,685,j,j,image_first,j,TRUE,常人,img/C_ambi40.png,circle,Neutral,1,exp2,mismatch
10,1,2000,5,479.38,psychophysics,655,f,f,image_first,f,TRUE,常人,img/T_ambi40.png,triangle,Neutral,1,exp2,match
10,1,2000,5,479.38,psychophysics,592,f,f,image_first,f,TRUE,好人,img/S_ambi40.png,square,Good,1,exp2,match
10,1,2000,5,479.38,psychophysics,606,j,j,image_first,j,TRUE,坏人,img/T_ambi40.png,triangle,Bad,1,exp2,mismatch
10,1,2000,5,479.38,psychophysics,465,f,f,image_first,f,TRUE,常人,img/T_ambi40.png,triangle,Neutral,1,exp2,match
10,1,2000,5,479.38,psychophysics,662,j,j,image_first,j,TRUE,常人,img/S_ambi40.png,square,Neutral,1,exp2,mismatch
10,1,2000,5,479.38,psychophysics,623,f,f,image_first,f,TRUE,好人,img/S_ambi40.png,square,Good,1,exp2,match
10,1,2000,5,479.38,psychophysics,572,j,j,image_first,j,TRUE,好人,img/T_ambi40.png,triangle,Good,1,exp2,mismatch
10,1,2000,5,479.38,psychophysics,873,f,f,image_first,f,TRUE,坏人,img/C_ambi40.png,circle,Bad,1,exp2,match
10,1,2000,5,479.38,psychophysics,535,f,f,image_first,f,TRUE,常人,img/T_ambi40.png,triangle,Neutral,1,exp2,match
10,1,2000,5,479.38,psychophysics,600,f,f,image_first,f,TRUE,坏人,img/C_ambi40.png,circle,Bad,1,exp2,match
10,1,2000,5,479.38,psychophysics,746,j,j,image_first,j,TRUE,坏人,img/T_ambi40.png,triangle,Bad,1,exp2,mismatch
10,1,2000,5,479.38,psychophysics,790,f,f,image_first,f,TRUE,坏人,img/C_ambi40.png,circle,Bad,1,exp2,match
10,1,2000,5,479.38,psychophysics,606,f,f,image_first,f,TRUE,好人,img/S_ambi40.png,square,Good,1,exp2,match
10,1,2000,5,479.38,psychophysics,592,j,j,image_first,j,TRUE,常人,img/C_ambi40.png,circle,Neutral,1,exp2,mismatch
10,1,2000,5,479.38,psychophysics,672,f,f,image_first,f,TRUE,常人,img/T_ambi40.png,triangle,Neutral,1,exp2,match
10,1,2000,5,479.38,psychophysics,824,j,j,image_first,j,TRUE,好人,img/T_ambi40.png,triangle,Good,1,exp2,mismatch
10,1,2000,5,479.38,psychophysics,1001,j,j,image_first,j,TRUE,常人,img/S_ambi40.png,square,Neutral,1,exp2,mismatch
10,1,2000,5,479.38,psychophysics,891,j,j,image_first,j,TRUE,好人,img/C_ambi40.png,circle,Good,1,exp2,mismatch
10,1,2000,5,479.38,psychophysics,603,f,f,image_first,f,TRUE,好人,img/S_ambi40.png,square,Good,1,exp2,match
10,1,2000,5,479.38,psychophysics,1238,j,j,image_first,j,TRUE,坏人,img/S_ambi40.png,square,Bad,1,exp2,mismatch
10,1,2000,5,479.38,psychophysics,622,f,f,image_first,f,TRUE,坏人,img/C_ambi40.png,circle,Bad,1,exp2,match
10,1,2000,5,479.38,psychophysics,700,j,j,image_first,j,TRUE,好人,img/T_ambi40.png,triangle,Good,1,exp2,mismatch
10,1,2000,5,479.38,psychophysics,679,f,f,image_first,f,TRUE,坏人,img/C_ambi40.png,circle,Bad,1,exp2,match
10,1,2000,5,479.38,psychophysics,624,f,f,image_first,f,TRUE,好人,img/S_ambi40.png,square,Good,1,exp2,match
10,1,2000,5,479.38,psychophysics,1040,f,f,image_first,f,TRUE,常人,img/T_ambi40.png,triangle,Neutral,1,exp2,match
10,1,2000,5,479.38,psychophysics,488,f,f,image_first,f,TRUE,常人,img/T_ambi40.png,triangle,Neutral,1,exp2,match
10,1,2000,5,479.38,psychophysics,576,j,j,image_first,j,TRUE,坏人,img/T_ambi40.png,triangle,Bad,1,exp2,mismatch
10,1,2000,5,479.38,psychophysics,690,j,j,image_first,j,TRUE,常人,img/C_ambi40.png,circle,Neutral,1,exp2,mismatch
10,1,2000,5,479.38,psychophysics,641,j,j,image_first,j,TRUE,坏人,img/S_ambi40.png,square,Bad,1,exp2,mismatch
10,1,2000,5,479.38,psychophysics,725,f,f,image_first,f,TRUE,好人,img/S_ambi40.png,square,Good,1,exp2,match
10,1,2000,5,479.38,psychophysics,597,j,j,image_first,j,TRUE,常人,img/S_ambi40.png,square,Neutral,1,exp2,mismatch
10,1,2000,5,479.38,psychophysics,619,j,j,image_first,j,TRUE,常人,img/S_ambi40.png,square,Neutral,1,exp2,mismatch
10,1,2000,5,479.38,psychophysics,573,f,f,image_first,f,TRUE,好人,img/S_ambi40.png,square,Good,1,exp2,match
10,1,2000,5,479.38,psychophysics,522,f,f,image_first,f,TRUE,坏人,img/C_ambi40.png,circle,Bad,1,exp2,match
10,1,2000,5,479.38,psychophysics,571,j,j,image_first,j,TRUE,坏人,img/T_ambi40.png,triangle,Bad,1,exp2,mismatch
10,1,2000,5,479.38,psychophysics,604,f,f,image_first,f,TRUE,常人,img/T_ambi40.png,triangle,Neutral,1,exp2,match
10,1,2000,5,479.38,psychophysics,566,j,j,image_first,j,TRUE,好人,img/T_ambi40.png,triangle,Good,1,exp2,mismatch
10,1,2000,5,479.38,psychophysics,594,f,f,image_first,f,TRUE,坏人,img/C_ambi40.png,circle,Bad,1,exp2,match
10,1,2000,5,479.38,psychophysics,432,f,f,image_first,f,TRUE,好人,img/S_ambi40.png,square,Good,1,exp2,match
10,1,2000,5,479.38,psychophysics,717,j,j,image_first,j,TRUE,好人,img/C_ambi40.png,circle,Good,1,exp2,mismatch
10,1,2000,5,479.38,psychophysics,679,j,j,image_first,j,TRUE,常人,img/C_ambi40.png,circle,Neutral,1,exp2,mismatch
10,1,2000,5,479.38,psychophysics,958,j,j,image_first,j,TRUE,坏人,img/S_ambi40.png,square,Bad,1,exp2,mismatch
10,1,2000,5,479.38,psychophysics,926,f,f,image_first,f,TRUE,坏人,img/C_ambi40.png,circle,Bad,1,exp2,match
10,1,2000,5,479.38,psychophysics,612,j,j,image_first,j,TRUE,好人,img/C_ambi40.png,circle,Good,1,exp2,mismatch
10,1,2000,5,479.38,psychophysics,598,j,j,image_first,j,TRUE,坏人,img/T_ambi40.png,triangle,Bad,1,exp2,mismatch
10,1,2000,5,479.38,psychophysics,643,f,f,image_first,f,TRUE,坏人,img/C_ambi40.png,circle,Bad,1,exp2,match
10,1,2000,5,479.38,psychophysics,896,f,f,image_first,f,TRUE,好人,img/S_ambi40.png,square,Good,1,exp2,match
10,1,2000,5,479.38,psychophysics,927,j,j,image_first,j,TRUE,常人,img/S_ambi40.png,square,Neutral,1,exp2,mismatch
10,1,2000,5,479.38,psychophysics,731,j,j,image_first,j,TRUE,常人,img/C_ambi40.png,circle,Neutral,1,exp2,mismatch
10,1,2000,5,479.38,psychophysics,592,j,j,image_first,j,TRUE,坏人,img/S_ambi40.png,square,Bad,1,exp2,mismatch
10,1,2000,5,479.38,psychophysics,526,f,f,image_first,f,TRUE,好人,img/S_ambi40.png,square,Good,1,exp2,match
10,1,2000,5,479.38,psychophysics,415,f,f,image_first,f,TRUE,常人,img/T_ambi40.png,triangle,Neutral,1,exp2,match
10,1,2000,5,479.38,psychophysics,582,f,f,image_first,f,TRUE,常人,img/T_ambi40.png,triangle,Neutral,1,exp2,match
10,1,2000,5,479.38,psychophysics,537,j,j,image_first,j,TRUE,好人,img/T_ambi40.png,triangle,Good,1,exp2,mismatch
10,1,2000,5,479.38,psychophysics,601,f,f,image_first,f,TRUE,好人,img/S_ambi40.png,square,Good,1,exp2,match
10,1,2000,5,479.38,psychophysics,572,j,j,image_first,j,TRUE,常人,img/C_ambi40.png,circle,Neutral,1,exp2,mismatch
10,1,2000,5,479.38,psychophysics,807,f,f,image_first,f,TRUE,坏人,img/C_ambi40.png,circle,Bad,1,exp2,match
10,1,2000,5,479.38,psychophysics,544,f,f,image_first,f,TRUE,常人,img/T_ambi40.png,triangle,Neutral,1,exp2,match
10,1,2000,5,479.38,psychophysics,645,j,j,image_first,j,TRUE,坏人,img/T_ambi40.png,triangle,Bad,1,exp2,mismatch
10,1,2000,5,479.38,psychophysics,618,j,j,image_first,j,TRUE,好人,img/T_ambi40.png,triangle,Good,1,exp2,mismatch
10,1,2000,5,479.38,psychophysics,829,j,j,image_first,j,TRUE,常人,img/S_ambi40.png,square,Neutral,1,exp2,mismatch
10,1,2000,5,479.38,psychophysics,750,j,j,image_first,j,TRUE,好人,img/C_ambi40.png,circle,Good,1,exp2,mismatch
10,1,2000,5,479.38,psychophysics,605,j,j,image_first,j,TRUE,坏人,img/S_ambi40.png,square,Bad,1,exp2,mismatch
10,1,2000,5,479.38,psychophysics,475,f,f,image_first,f,TRUE,常人,img/T_ambi40.png,triangle,Neutral,1,exp2,match
10,1,2000,5,479.38,psychophysics,556,f,f,image_first,f,TRUE,坏人,img/C_ambi40.png,circle,Bad,1,exp2,match
10,1,2000,5,479.38,psychophysics,473,f,f,image_first,f,TRUE,好人,img/S_ambi40.png,square,Good,1,exp2,match
10,1,2000,5,479.38,psychophysics,433,f,f,image_first,f,TRUE,常人,img/T_ambi40.png,triangle,Neutral,1,exp2,match
10,1,2000,5,479.38,psychophysics,644,j,j,image_first,j,TRUE,常人,img/C_ambi40.png,circle,Neutral,1,exp2,mismatch
10,1,2000,5,479.38,psychophysics,648,j,j,image_first,j,TRUE,坏人,img/T_ambi40.png,triangle,Bad,1,exp2,mismatch
10,1,2000,5,479.38,psychophysics,714,f,f,image_first,f,TRUE,好人,img/S_ambi40.png,square,Good,1,exp2,match
10,1,2000,5,479.38,psychophysics,743,j,j,image_first,j,TRUE,好人,img/C_ambi40.png,circle,Good,1,exp2,mismatch
10,1,2000,5,479.38,psychophysics,702,f,f,image_first,f,TRUE,常人,img/T_ambi40.png,triangle,Neutral,1,exp2,match
10,1,2000,5,479.38,psychophysics,595,j,j,image_first,j,TRUE,好人,img/T_ambi40.png,triangle,Good,1,exp2,mismatch
10,1,2000,5,479.38,psychophysics,734,j,j,image_first,j,TRUE,常人,img/S_ambi40.png,square,Neutral,1,exp2,mismatch
10,1,2000,5,479.38,psychophysics,614,f,f,image_first,f,TRUE,好人,img/S_ambi40.png,square,Good,1,exp2,match
10,1,2000,5,479.38,psychophysics,534,f,f,image_first,f,TRUE,坏人,img/C_ambi40.png,circle,Bad,1,exp2,match
10,1,2000,5,479.38,psychophysics,940,j,j,image_first,j,TRUE,坏人,img/S_ambi40.png,square,Bad,1,exp2,mismatch
10,1,2000,5,479.38,psychophysics,621,j,j,image_first,j,TRUE,常人,img/S_ambi40.png,square,Neutral,1,exp2,mismatch
10,1,2000,5,479.38,psychophysics,577,j,j,image_first,j,TRUE,坏人,img/T_ambi40.png,triangle,Bad,1,exp2,mismatch
10,1,2000,5,479.38,psychophysics,613,j,j,image_first,j,TRUE,坏人,img/S_ambi40.png,square,Bad,1,exp2,mismatch
10,1,2000,5,479.38,psychophysics,733,f,f,image_first,f,TRUE,好人,img/S_ambi40.png,square,Good,1,exp2,match
10,1,2000,5,479.38,psychophysics,851,f,f,image_first,f,TRUE,坏人,img/C_ambi40.png,circle,Bad,1,exp2,match
10,1,2000,5,479.38,psychophysics,535,j,j,image_first,j,TRUE,常人,img/C_ambi40.png,circle,Neutral,1,exp2,mismatch
10,1,2000,5,479.38,psychophysics,871,j,j,image_first,j,TRUE,好人,img/T_ambi40.png,triangle,Good,1,exp2,mismatch
10,1,2000,5,479.38,psychophysics,448,f,f,image_first,f,TRUE,常人,img/T_ambi40.png,triangle,Neutral,1,exp2,match
10,1,2000,5,479.38,psychophysics,830,j,j,image_first,j,TRUE,好人,img/C_ambi40.png,circle,Good,1,exp2,mismatch
10,1,2000,5,479.38,psychophysics,687,f,f,image_first,f,TRUE,常人,img/T_ambi40.png,triangle,Neutral,1,exp2,match
10,1,2000,5,479.38,psychophysics,454,f,f,image_first,f,TRUE,好人,img/S_ambi40.png,square,Good,1,exp2,match
10,1,2000,5,479.38,psychophysics,407,f,f,image_first,f,TRUE,坏人,img/C_ambi40.png,circle,Bad,1,exp2,match
10,1,2000,5,479.38,psychophysics,474,f,f,image_first,f,TRUE,好人,img/S_ambi40.png,square,Good,1,exp2,match
10,1,2000,5,479.38,psychophysics,557,f,f,image_first,f,TRUE,常人,img/T_ambi40.png,triangle,Neutral,1,exp2,match
10,1,2000,5,479.38,psychophysics,554,j,j,image_first,j,TRUE,常人,img/C_ambi40.png,circle,Neutral,1,exp2,mismatch
10,1,2000,5,479.38,psychophysics,626,j,j,image_first,j,TRUE,好人,img/T_ambi40.png,triangle,Good,1,exp2,mismatch
